"pen_argset_A_back_corner1_junk - Storage 112642"
"Wavelength nm."	"R%"
185,00	255,0388
185,50	222,5751
186,00	188,0092
186,50	150,4999
187,00	119,2598
187,50	83,1963
188,00	72,0630
188,50	77,3357
189,00	77,6979
189,50	73,4745
190,00	72,7508
190,50	71,2618
191,00	73,4064
191,50	69,9345
192,00	70,6198
192,50	67,9692
193,00	66,7817
193,50	64,3236
194,00	65,0238
194,50	62,4579
195,00	62,3785
195,50	63,0418
196,00	61,5760
196,50	60,8919
197,00	61,3769
197,50	61,7494
198,00	62,4229
198,50	61,7055
199,00	61,6512
199,50	61,6244
200,00	60,8107
200,50	60,5168
201,00	60,4567
201,50	60,6214
202,00	59,9377
202,50	59,2468
203,00	59,2536
203,50	58,6192
204,00	58,3817
204,50	57,3705
205,00	57,2035
205,50	56,2547
206,00	55,2462
206,50	55,3574
207,00	55,3033
207,50	54,7426
208,00	54,5081
208,50	54,0313
209,00	53,6958
209,50	53,7236
210,00	54,1217
210,50	53,8702
211,00	53,0373
211,50	52,5811
212,00	52,3498
212,50	52,0508
213,00	51,8496
213,50	51,6951
214,00	51,0808
214,50	50,7522
215,00	50,4923
215,50	50,5313
216,00	50,1133
216,50	49,9584
217,00	49,6201
217,50	49,3299
218,00	48,9258
218,50	48,8179
219,00	48,5112
219,50	48,2396
220,00	47,9776
220,50	48,0757
221,00	47,7262
221,50	47,5577
222,00	47,4806
222,50	47,4183
223,00	47,3734
223,50	47,1025
224,00	46,8140
224,50	46,7023
225,00	46,4629
225,50	46,3377
226,00	46,2087
226,50	46,1721
227,00	46,1093
227,50	45,8793
228,00	45,8912
228,50	45,9149
229,00	45,7446
229,50	45,5489
230,00	45,5240
230,50	45,5264
231,00	45,4198
231,50	45,2921
232,00	45,1942
232,50	45,0595
233,00	45,0557
233,50	45,1178
234,00	45,1393
234,50	45,0745
235,00	45,0625
235,50	45,0268
236,00	45,1309
236,50	45,2858
237,00	45,4176
237,50	45,4099
238,00	45,3794
238,50	45,3886
239,00	45,4515
239,50	45,5005
240,00	45,4546
240,50	45,5080
241,00	45,4267
241,50	45,4508
242,00	45,4317
242,50	45,5557
243,00	45,6314
243,50	45,6513
244,00	45,7416
244,50	45,9160
245,00	45,7925
245,50	45,8037
246,00	45,8171
246,50	45,9144
247,00	45,9424
247,50	45,9185
248,00	45,9869
248,50	45,9485
249,00	45,8901
249,50	46,0008
250,00	46,1339
250,50	46,1984
251,00	46,1735
251,50	46,2062
252,00	46,2431
252,50	46,2492
253,00	46,3192
253,50	46,4714
254,00	46,4857
254,50	46,4992
255,00	46,4733
255,50	46,4936
256,00	46,4869
256,50	46,5095
257,00	46,4723
257,50	46,3922
258,00	46,3484
258,50	46,3199
259,00	46,2565
259,50	46,1799
260,00	46,2035
260,50	46,1162
261,00	46,0464
261,50	46,0192
262,00	46,0271
262,50	45,8206
263,00	45,8318
263,50	45,8532
264,00	45,8188
264,50	45,7381
265,00	45,6604
265,50	45,7091
266,00	45,7243
266,50	45,6764
267,00	45,7585
267,50	45,7459
268,00	45,6563
268,50	45,6292
269,00	45,6360
269,50	45,6446
270,00	45,5563
270,50	45,4452
271,00	45,3400
271,50	45,2895
272,00	45,2081
272,50	45,1442
273,00	45,1879
273,50	45,1251
274,00	45,0882
274,50	45,0570
275,00	45,0727
275,50	45,0956
276,00	45,0735
276,50	45,0748
277,00	45,0247
277,50	44,9739
278,00	44,9917
278,50	45,0301
279,00	44,9939
279,50	45,0036
280,00	45,0711
280,50	45,0550
281,00	44,9684
281,50	45,0015
282,00	44,9733
282,50	44,9498
283,00	44,8733
283,50	44,9196
284,00	45,0128
284,50	44,9352
285,00	45,0373
285,50	45,1202
286,00	45,1784
286,50	45,1541
287,00	45,1498
287,50	45,2381
288,00	45,2540
288,50	45,1743
289,00	45,2860
289,50	45,2396
290,00	45,2288
290,50	45,2471
291,00	45,2759
291,50	45,3172
292,00	45,3460
292,50	45,3053
293,00	45,3337
293,50	45,2875
294,00	45,2712
294,50	45,3093
295,00	45,3219
295,50	45,3449
296,00	45,3678
296,50	45,4277
297,00	45,4519
297,50	45,4910
298,00	45,4664
298,50	45,4597
299,00	45,5148
299,50	45,5349
300,00	45,5739
300,50	45,5837
301,00	45,5431
301,50	45,6549
302,00	45,6339
302,50	45,6813
303,00	45,7623
303,50	45,7550
304,00	45,7550
304,50	45,8225
305,00	45,8487
305,50	45,7870
306,00	45,6820
306,50	45,6281
307,00	45,6134
307,50	45,6012
308,00	45,5988
308,50	45,7907
309,00	45,9369
309,50	46,1163
310,00	46,3795
310,50	46,6307
311,00	46,8443
311,50	47,0668
312,00	47,0948
312,50	47,1827
313,00	47,0914
313,50	46,9922
314,00	46,9503
314,50	46,8309
315,00	46,7698
315,50	46,7670
316,00	46,6609
316,50	46,6984
317,00	46,7449
317,50	46,8574
318,00	46,9248
318,50	46,8478
319,00	46,9791
319,50	46,9549
320,00	46,8623
320,50	46,8937
321,00	46,9502
321,50	46,9310
322,00	46,8395
322,50	46,7160
323,00	46,7576
323,50	46,6402
324,00	46,6376
324,50	46,6987
325,00	46,7465
325,50	46,7146
326,00	46,6448
326,50	46,6718
327,00	46,7583
327,50	46,7301
328,00	46,7262
328,50	46,7359
329,00	46,7387
329,50	46,7360
330,00	46,7611
330,50	46,7484
331,00	46,7333
331,50	46,7300
332,00	46,7467
332,50	46,7928
333,00	46,7883
333,50	46,7057
334,00	46,6609
334,50	46,5993
335,00	46,6095
335,50	46,5576
336,00	46,5267
336,50	46,4785
337,00	46,4261
337,50	46,4097
338,00	46,5065
338,50	46,4762
339,00	46,5299
339,50	46,5572
340,00	46,6149
340,50	46,6402
341,00	46,6788
341,50	46,7077
342,00	46,7304
342,50	46,7169
343,00	46,6438
343,50	46,6122
344,00	46,5492
344,50	46,5099
345,00	46,4774
345,50	46,4563
346,00	46,3630
346,50	46,2844
347,00	46,2152
347,50	46,2878
348,00	46,2738
348,50	46,3277
349,00	46,3051
349,50	46,2664
350,00	46,2799
350,50	46,3062
351,00	46,2850
351,50	46,2758
352,00	46,2246
352,50	46,2267
353,00	46,2260
353,50	46,2459
354,00	46,2924
354,50	46,2945
355,00	46,3041
355,50	46,3319
356,00	46,3227
356,50	46,3609
357,00	46,4131
357,50	46,4500
358,00	46,3928
358,50	46,6092
359,00	46,7778
359,50	46,9563
360,00	47,1669
360,50	47,4050
361,00	47,5361
361,50	47,6492
362,00	47,7852
362,50	47,9588
363,00	47,9416
363,50	47,8831
364,00	47,8257
364,50	47,7967
365,00	47,7933
365,50	47,8496
366,00	47,8382
366,50	47,8054
367,00	47,8824
367,50	47,8712
368,00	47,9133
368,50	47,9374
369,00	47,8871
369,50	47,8390
370,00	47,7670
370,50	47,7883
371,00	47,7745
371,50	47,7209
372,00	47,6644
372,50	47,6092
373,00	47,6112
373,50	47,6274
374,00	47,5872
374,50	47,5938
375,00	47,5561
375,50	47,5514
376,00	47,4952
376,50	47,4377
377,00	47,4388
377,50	47,3627
378,00	47,3046
378,50	47,2042
379,00	47,1266
379,50	46,9706
380,00	46,8939
380,50	46,8191
381,00	46,7938
381,50	46,6983
382,00	46,7014
382,50	46,6471
383,00	46,6244
383,50	46,5729
384,00	46,5567
384,50	46,5160
385,00	46,5045
385,50	46,4819
386,00	46,4878
386,50	46,4290
387,00	46,4047
387,50	46,4377
388,00	46,4394
388,50	46,4979
389,00	46,5443
389,50	46,5394
390,00	46,5287
390,50	46,4975
391,00	46,5079
391,50	46,5360
392,00	46,5196
392,50	46,5077
393,00	46,4756
393,50	46,3974
394,00	46,3832
394,50	46,3565
395,00	46,3473
395,50	46,3189
396,00	46,2813
396,50	46,3120
397,00	46,3338
397,50	46,3512
398,00	46,3900
398,50	46,3687
399,00	46,3665
399,50	46,3846
400,00	46,3623
400,50	46,3576
401,00	46,3149
401,50	46,2932
402,00	46,2577
402,50	46,2192
403,00	46,2234
403,50	46,2252
404,00	46,1935
404,50	46,2264
405,00	46,2418
405,50	46,2251
406,00	46,1804
406,50	46,1948
407,00	46,2096
407,50	46,2079
408,00	46,1916
408,50	46,2126
409,00	46,1460
409,50	46,1021
410,00	46,1018
410,50	46,1036
411,00	46,0608
411,50	46,0213
412,00	46,0066
412,50	45,9881
413,00	45,9341
413,50	45,9367
414,00	45,9026
414,50	45,9040
415,00	45,9049
415,50	45,9224
416,00	45,8874
416,50	45,8607
417,00	45,8389
417,50	45,8183
418,00	45,8272
418,50	45,7375
419,00	45,6348
419,50	45,5254
420,00	45,3875
420,50	45,3234
421,00	45,2257
421,50	45,1306
422,00	45,0484
422,50	44,9780
423,00	45,0003
423,50	44,9814
424,00	44,9919
424,50	45,0012
425,00	45,0034
425,50	45,0172
426,00	44,9887
426,50	45,0049
427,00	44,9727
427,50	44,9614
428,00	44,9361
428,50	44,9437
429,00	44,9395
429,50	44,9349
430,00	44,9172
430,50	44,9559
431,00	44,9649
431,50	44,9586
432,00	44,9936
432,50	44,9927
433,00	44,9789
433,50	44,9808
434,00	44,9761
434,50	44,9749
435,00	44,9588
435,50	44,9508
436,00	44,9518
436,50	44,9348
437,00	44,9614
437,50	44,9551
438,00	44,9400
438,50	44,9255
439,00	44,9357
439,50	44,9487
440,00	44,9245
440,50	44,9509
441,00	44,9549
441,50	44,9535
442,00	44,9328
442,50	44,9425
443,00	44,9662
443,50	44,9541
444,00	44,9456
444,50	44,9500
445,00	44,9304
445,50	44,9283
446,00	44,9308
446,50	44,9677
447,00	45,0170
447,50	45,0011
448,00	45,0090
448,50	45,0043
449,00	45,0225
449,50	45,0372
450,00	45,0374
450,50	45,0517
451,00	45,0221
451,50	45,0007
452,00	45,0103
452,50	45,0152
453,00	45,0324
453,50	45,0170
454,00	45,0015
454,50	44,9841
455,00	44,9688
455,50	44,9674
456,00	44,9411
456,50	44,9247
457,00	44,9129
457,50	44,9065
458,00	44,9122
458,50	44,9159
459,00	44,9100
459,50	44,9163
460,00	44,9391
460,50	44,9332
461,00	44,9417
461,50	44,9463
462,00	44,9416
462,50	44,9264
463,00	44,9077
463,50	44,8907
464,00	44,8530
464,50	44,8174
465,00	44,8263
465,50	44,8178
466,00	44,7971
466,50	44,7558
467,00	44,7239
467,50	44,7015
468,00	44,6856
468,50	44,6749
469,00	44,6540
469,50	44,6354
470,00	44,6042
470,50	44,5781
471,00	44,5906
471,50	44,5872
472,00	44,5716
472,50	44,5677
473,00	44,5364
473,50	44,5445
474,00	44,5150
474,50	44,4955
475,00	44,5082
475,50	44,4803
476,00	44,4737
476,50	44,4581
477,00	44,4376
477,50	44,4600
478,00	44,4548
478,50	44,4685
479,00	44,4719
479,50	44,4516
480,00	44,4660
480,50	44,4785
481,00	44,5104
481,50	44,5306
482,00	44,5311
482,50	44,5209
483,00	44,5175
483,50	44,5189
484,00	44,5523
484,50	44,5450
485,00	44,5286
485,50	44,5274
486,00	44,5290
486,50	44,5461
487,00	44,5694
487,50	44,5622
488,00	44,5733
488,50	44,5730
489,00	44,5707
489,50	44,5788
490,00	44,5644
490,50	44,5519
491,00	44,5360
491,50	44,5271
492,00	44,5442
492,50	44,5419
493,00	44,5085
493,50	44,5143
494,00	44,5206
494,50	44,5233
495,00	44,5367
495,50	44,5399
496,00	44,5400
496,50	44,5207
497,00	44,5613
497,50	44,5663
498,00	44,5671
498,50	44,5586
499,00	44,5810
499,50	44,5949
500,00	44,5954
500,50	44,5871
501,00	44,6177
501,50	44,5778
502,00	44,6051
502,50	44,6058
503,00	44,6246
503,50	44,6041
504,00	44,6157
504,50	44,6067
505,00	44,6294
505,50	44,5983
506,00	44,6194
506,50	44,6138
507,00	44,6062
507,50	44,5813
508,00	44,5786
508,50	44,5417
509,00	44,5388
509,50	44,5164
510,00	44,5165
510,50	44,5038
511,00	44,4989
511,50	44,4853
512,00	44,5111
512,50	44,5184
513,00	44,5047
513,50	44,5126
514,00	44,5083
514,50	44,5085
515,00	44,5115
515,50	44,4864
516,00	44,5008
516,50	44,4884
517,00	44,4739
517,50	44,4767
518,00	44,4730
518,50	44,4903
519,00	44,5054
519,50	44,4873
520,00	44,5136
520,50	44,5010
521,00	44,4845
521,50	44,4993
522,00	44,5020
522,50	44,5156
523,00	44,4884
523,50	44,4608
524,00	44,4717
524,50	44,4559
525,00	44,4757
525,50	44,4604
526,00	44,4349
526,50	44,4239
527,00	44,3881
527,50	44,3811
528,00	44,3738
528,50	44,3478
529,00	44,3281
529,50	44,2792
530,00	44,2485
530,50	44,2376
531,00	44,2191
531,50	44,2146
532,00	44,1948
532,50	44,1785
533,00	44,1565
533,50	44,1543
534,00	44,1606
534,50	44,1855
535,00	44,1846
535,50	44,1802
536,00	44,1679
536,50	44,1812
537,00	44,1760
537,50	44,1917
538,00	44,1865
538,50	44,1841
539,00	44,1702
539,50	44,1664
540,00	44,1718
540,50	44,1651
541,00	44,1446
541,50	44,1320
542,00	44,1251
542,50	44,1260
543,00	44,1284
543,50	44,1491
544,00	44,1574
544,50	44,1466
545,00	44,1314
545,50	44,1381
546,00	44,1420
546,50	44,1277
547,00	44,1311
547,50	44,1237
548,00	44,1195
548,50	44,1048
549,00	44,0930
549,50	44,1120
550,00	44,1046
550,50	44,0904
551,00	44,0956
551,50	44,0678
552,00	44,0727
552,50	44,0276
553,00	44,0230
553,50	44,0390
554,00	44,0160
554,50	44,0181
555,00	44,0342
555,50	44,0413
556,00	44,0463
556,50	44,0211
557,00	44,0300
557,50	44,0123
558,00	44,0046
558,50	43,9947
559,00	44,0075
559,50	44,0119
560,00	43,9777
560,50	43,9599
561,00	43,9670
561,50	43,9557
562,00	43,9481
562,50	43,9491
563,00	43,9637
563,50	43,9178
564,00	43,9000
564,50	43,8851
565,00	43,8843
565,50	43,8660
566,00	43,8792
566,50	43,8652
567,00	43,8632
567,50	43,8489
568,00	43,8641
568,50	43,8411
569,00	43,8498
569,50	43,8524
570,00	43,8726
570,50	43,8590
571,00	43,8651
571,50	43,8583
572,00	43,8496
572,50	43,8148
573,00	43,8259
573,50	43,8349
574,00	43,8206
574,50	43,8000
575,00	43,8006
575,50	43,8027
576,00	43,7970
576,50	43,8011
577,00	43,8223
577,50	43,8272
578,00	43,8159
578,50	43,7927
579,00	43,7937
579,50	43,7747
580,00	43,7592
580,50	43,7386
581,00	43,7196
581,50	43,7183
582,00	43,7267
582,50	43,7218
583,00	43,7242
583,50	43,7282
584,00	43,7742
584,50	43,7911
585,00	43,8233
585,50	43,8248
586,00	43,8458
586,50	43,8428
587,00	43,8702
587,50	43,9062
588,00	43,8957
588,50	43,8657
589,00	43,8684
589,50	43,8552
590,00	43,8661
590,50	43,8669
591,00	43,8504
591,50	43,8517
592,00	43,8420
592,50	43,8523
593,00	43,8736
593,50	43,8786
594,00	43,8795
594,50	43,9136
595,00	43,9083
595,50	43,9105
596,00	43,9030
596,50	43,9223
597,00	43,9298
597,50	43,9221
598,00	43,9332
598,50	43,9464
599,00	43,9389
599,50	43,9468
600,00	43,9725
