"pen_argset_A_back_corner1_02_wrinkled - Storage 113444"
"Wavelength nm."	"R%"
185,00	232,2227
185,50	209,1409
186,00	184,4779
186,50	156,3841
187,00	132,3889
187,50	106,9495
188,00	100,0351
188,50	105,7437
189,00	104,8345
189,50	88,6510
190,00	88,0543
190,50	87,5980
191,00	89,7989
191,50	89,1466
192,00	90,4283
192,50	89,4128
193,00	83,5749
193,50	80,6053
194,00	78,3273
194,50	76,7943
195,00	75,5281
195,50	76,7412
196,00	75,0463
196,50	73,2009
197,00	72,5579
197,50	73,8614
198,00	73,4476
198,50	73,8567
199,00	72,8735
199,50	72,9290
200,00	71,3122
200,50	71,1759
201,00	70,8968
201,50	70,4371
202,00	69,4360
202,50	69,1339
203,00	69,0807
203,50	68,2114
204,00	67,9186
204,50	67,4441
205,00	67,0868
205,50	66,5906
206,00	65,5013
206,50	65,5912
207,00	64,9253
207,50	64,2008
208,00	64,2522
208,50	63,5323
209,00	63,1071
209,50	62,7240
210,00	62,5046
210,50	62,2775
211,00	61,0678
211,50	60,7196
212,00	60,1715
212,50	59,5050
213,00	59,0969
213,50	58,5921
214,00	58,2616
214,50	57,5975
215,00	57,3355
215,50	57,3384
216,00	57,1597
216,50	56,9592
217,00	56,6191
217,50	56,4716
218,00	56,3062
218,50	55,8530
219,00	55,4748
219,50	55,0289
220,00	54,6631
220,50	54,3490
221,00	54,0553
221,50	53,8288
222,00	53,6581
222,50	53,3215
223,00	53,1761
223,50	52,8699
224,00	52,5918
224,50	52,4211
225,00	52,0322
225,50	51,7588
226,00	51,5757
226,50	51,2474
227,00	51,1792
227,50	50,9220
228,00	50,9269
228,50	50,8933
229,00	50,7371
229,50	50,7314
230,00	50,7608
230,50	50,9304
231,00	50,9648
231,50	50,6505
232,00	50,5333
232,50	50,4591
233,00	50,3634
233,50	50,2933
234,00	50,3408
234,50	50,2125
235,00	50,1391
235,50	50,1601
236,00	50,2880
236,50	50,4666
237,00	50,4003
237,50	50,4787
238,00	50,5254
238,50	50,3755
239,00	50,4019
239,50	50,3381
240,00	50,2387
240,50	50,3654
241,00	50,3172
241,50	50,4420
242,00	50,4184
242,50	50,5556
243,00	50,7394
243,50	50,7193
244,00	50,8372
244,50	50,9718
245,00	50,9338
245,50	50,9958
246,00	51,0667
246,50	51,1670
247,00	51,1680
247,50	51,1401
248,00	51,2603
248,50	51,2300
249,00	51,2206
249,50	51,2687
250,00	51,3692
250,50	51,3848
251,00	51,3926
251,50	51,4294
252,00	51,4589
252,50	51,4889
253,00	51,5480
253,50	51,6847
254,00	51,6537
254,50	51,6209
255,00	51,6207
255,50	51,6331
256,00	51,6201
256,50	51,6052
257,00	51,5700
257,50	51,5146
258,00	51,4254
258,50	51,4158
259,00	51,3893
259,50	51,3122
260,00	51,2751
260,50	51,1050
261,00	50,9909
261,50	50,8878
262,00	50,7852
262,50	50,5810
263,00	50,5894
263,50	50,4916
264,00	50,3795
264,50	50,2566
265,00	50,1937
265,50	50,1734
266,00	50,1506
266,50	50,0659
267,00	50,0542
267,50	49,8793
268,00	49,7585
268,50	49,6617
269,00	49,5890
269,50	49,5943
270,00	49,5440
270,50	49,4671
271,00	49,4095
271,50	49,3728
272,00	49,3617
272,50	49,3295
273,00	49,3448
273,50	49,3737
274,00	49,3383
274,50	49,2549
275,00	49,2102
275,50	49,2509
276,00	49,1483
276,50	49,1228
277,00	49,0790
277,50	49,0531
278,00	48,9231
278,50	48,9225
279,00	48,8924
279,50	48,8536
280,00	48,7802
280,50	48,8840
281,00	48,8993
281,50	48,8097
282,00	48,7601
282,50	48,8073
283,00	48,7450
283,50	48,7970
284,00	48,9086
284,50	48,9005
285,00	48,8884
285,50	48,9176
286,00	49,0598
286,50	49,0996
287,00	49,0384
287,50	49,0789
288,00	49,0933
288,50	49,0102
289,00	49,0448
289,50	49,1432
290,00	49,1961
290,50	49,1606
291,00	49,1872
291,50	49,2589
292,00	49,3015
292,50	49,3061
293,00	49,3098
293,50	49,3538
294,00	49,2764
294,50	49,1822
295,00	49,2388
295,50	49,2271
296,00	49,1827
296,50	49,2060
297,00	49,1813
297,50	49,2679
298,00	49,3324
298,50	49,3757
299,00	49,4663
299,50	49,4897
300,00	49,6186
300,50	49,6833
301,00	49,6767
301,50	49,8154
302,00	49,7857
302,50	49,7713
303,00	49,8390
303,50	49,8526
304,00	49,8114
304,50	49,7882
305,00	49,8236
305,50	49,7283
306,00	49,6321
306,50	49,6124
307,00	49,5891
307,50	49,5451
308,00	49,5216
308,50	49,8509
309,00	49,9569
309,50	50,0652
310,00	50,2091
310,50	50,3396
311,00	50,5246
311,50	50,6660
312,00	50,6502
312,50	50,7559
313,00	50,5532
313,50	50,5548
314,00	50,5453
314,50	50,5253
315,00	50,5176
315,50	50,3733
316,00	50,3317
316,50	50,3851
317,00	50,3747
317,50	50,3599
318,00	50,2693
318,50	50,2237
319,00	50,2765
319,50	50,1900
320,00	50,1913
320,50	50,0379
321,00	50,0243
321,50	49,9693
322,00	49,9499
322,50	49,9388
323,00	49,9578
323,50	49,9000
324,00	49,9022
324,50	49,9085
325,00	49,9917
325,50	49,8792
326,00	49,8304
326,50	49,7407
327,00	49,7469
327,50	49,6576
328,00	49,6040
328,50	49,5199
329,00	49,4573
329,50	49,4129
330,00	49,4891
330,50	49,4663
331,00	49,5173
331,50	49,4646
332,00	49,4720
332,50	49,4900
333,00	49,5778
333,50	49,5483
334,00	49,5349
334,50	49,4658
335,00	49,4615
335,50	49,4080
336,00	49,4271
336,50	49,3770
337,00	49,3358
337,50	49,2894
338,00	49,3694
338,50	49,4083
339,00	49,4498
339,50	49,4008
340,00	49,4424
340,50	49,4321
341,00	49,4266
341,50	49,4099
342,00	49,3867
342,50	49,2868
343,00	49,2506
343,50	49,2360
344,00	49,3125
344,50	49,2375
345,00	49,2361
345,50	49,2740
346,00	49,2368
346,50	49,2089
347,00	49,2457
347,50	49,2524
348,00	49,2326
348,50	49,1316
349,00	49,0907
349,50	49,0044
350,00	48,9884
350,50	49,0452
351,00	49,0465
351,50	49,0278
352,00	48,9545
352,50	48,9616
353,00	49,0609
353,50	49,1476
354,00	49,1718
354,50	49,1753
355,00	49,1675
355,50	49,1519
356,00	49,1336
356,50	49,1699
357,00	49,1392
357,50	49,1109
358,00	49,0292
358,50	49,2311
359,00	49,3859
359,50	49,5407
360,00	49,7297
360,50	49,9592
361,00	50,0816
361,50	50,2417
362,00	50,3892
362,50	50,5993
363,00	50,5528
363,50	50,5227
364,00	50,5051
364,50	50,5084
365,00	50,4833
365,50	50,5330
366,00	50,4843
366,50	50,4376
367,00	50,4317
367,50	50,4515
368,00	50,4440
368,50	50,4401
369,00	50,3905
369,50	50,3725
370,00	50,2693
370,50	50,3309
371,00	50,3249
371,50	50,2874
372,00	50,2430
372,50	50,2350
373,00	50,1979
373,50	50,1957
374,00	50,1442
374,50	50,1975
375,00	50,1229
375,50	50,1199
376,00	50,0770
376,50	50,0539
377,00	50,0444
377,50	49,9519
378,00	49,8486
378,50	49,7461
379,00	49,6410
379,50	49,5135
380,00	49,3797
380,50	49,2841
381,00	49,2039
381,50	49,0871
382,00	49,1182
382,50	49,0711
383,00	49,0672
383,50	49,0063
384,00	49,0413
384,50	49,0523
385,00	49,0547
385,50	49,0206
386,00	49,0423
386,50	48,9725
387,00	48,9868
387,50	49,0175
388,00	49,0362
388,50	49,0519
389,00	49,0425
389,50	49,0707
390,00	49,0684
390,50	49,0801
391,00	49,1086
391,50	49,1102
392,00	49,0942
392,50	49,0791
393,00	49,0404
393,50	49,0220
394,00	49,0103
394,50	48,9893
395,00	48,9210
395,50	48,9084
396,00	48,8987
396,50	48,8806
397,00	48,9023
397,50	48,8998
398,00	48,9045
398,50	48,8499
399,00	48,8670
399,50	48,8880
400,00	48,8717
400,50	48,8795
401,00	48,8563
401,50	48,8573
402,00	48,8535
402,50	48,8487
403,00	48,8492
403,50	48,8565
404,00	48,8246
404,50	48,7962
405,00	48,7938
405,50	48,7544
406,00	48,7172
406,50	48,7011
407,00	48,6756
407,50	48,7203
408,00	48,6956
408,50	48,7286
409,00	48,7131
409,50	48,6856
410,00	48,7239
410,50	48,7256
411,00	48,6824
411,50	48,6983
412,00	48,6283
412,50	48,5885
413,00	48,5152
413,50	48,5220
414,00	48,5030
414,50	48,4741
415,00	48,4603
415,50	48,4930
416,00	48,4628
416,50	48,4863
417,00	48,4986
417,50	48,4869
418,00	48,4628
418,50	48,3597
419,00	48,2447
419,50	48,1480
420,00	48,0070
420,50	47,8848
421,00	47,7767
421,50	47,6684
422,00	47,5957
422,50	47,4898
423,00	47,4864
423,50	47,4641
424,00	47,4501
424,50	47,4498
425,00	47,4558
425,50	47,4315
426,00	47,3977
426,50	47,3987
427,00	47,4066
427,50	47,4223
428,00	47,4190
428,50	47,4349
429,00	47,4290
429,50	47,4499
430,00	47,4654
430,50	47,4912
431,00	47,4902
431,50	47,4891
432,00	47,5025
432,50	47,5273
433,00	47,5078
433,50	47,5082
434,00	47,4841
434,50	47,4530
435,00	47,4201
435,50	47,4176
436,00	47,4174
436,50	47,3923
437,00	47,3854
437,50	47,3705
438,00	47,3988
438,50	47,3847
439,00	47,3946
439,50	47,4100
440,00	47,3728
440,50	47,3708
441,00	47,3645
441,50	47,3628
442,00	47,3631
442,50	47,3418
443,00	47,3505
443,50	47,3418
444,00	47,3324
444,50	47,3383
445,00	47,3395
445,50	47,3505
446,00	47,3310
446,50	47,3330
447,00	47,3389
447,50	47,3413
448,00	47,3560
448,50	47,3735
449,00	47,3815
449,50	47,4031
450,00	47,3792
450,50	47,4088
451,00	47,4001
451,50	47,4040
452,00	47,4156
452,50	47,4260
453,00	47,4272
453,50	47,4285
454,00	47,4059
454,50	47,3937
455,00	47,3682
455,50	47,3487
456,00	47,3121
456,50	47,2838
457,00	47,2423
457,50	47,2292
458,00	47,2381
458,50	47,2446
459,00	47,2410
459,50	47,2515
460,00	47,2682
460,50	47,2681
461,00	47,2812
461,50	47,3090
462,00	47,3023
462,50	47,2753
463,00	47,2659
463,50	47,2693
464,00	47,2491
464,50	47,2414
465,00	47,2611
465,50	47,2461
466,00	47,2192
466,50	47,2123
467,00	47,2005
467,50	47,1679
468,00	47,1593
468,50	47,1534
469,00	47,1336
469,50	47,1220
470,00	47,1142
470,50	47,1180
471,00	47,1112
471,50	47,1018
472,00	47,1079
472,50	47,1017
473,00	47,0567
473,50	47,0452
474,00	46,9984
474,50	46,9762
475,00	46,9646
475,50	46,9231
476,00	46,9172
476,50	46,8781
477,00	46,8706
477,50	46,8805
478,00	46,8711
478,50	46,8906
479,00	46,8702
479,50	46,8481
480,00	46,8770
480,50	46,8734
481,00	46,8993
481,50	46,8836
482,00	46,8832
482,50	46,8949
483,00	46,9054
483,50	46,9084
484,00	46,9252
484,50	46,9270
485,00	46,9170
485,50	46,9071
486,00	46,9138
486,50	46,9272
487,00	46,9272
487,50	46,9062
488,00	46,9223
488,50	46,9364
489,00	46,9257
489,50	46,9422
490,00	46,9353
490,50	46,9320
491,00	46,9183
491,50	46,9036
492,00	46,9172
492,50	46,9187
493,00	46,8838
493,50	46,8668
494,00	46,8774
494,50	46,8862
495,00	46,8984
495,50	46,9084
496,00	46,9018
496,50	46,8668
497,00	46,8846
497,50	46,8876
498,00	46,9076
498,50	46,8764
499,00	46,8677
499,50	46,8726
500,00	46,8728
500,50	46,8753
501,00	46,9039
501,50	46,8881
502,00	46,8984
502,50	46,8870
503,00	46,9006
503,50	46,8937
504,00	46,8946
504,50	46,8908
505,00	46,9140
505,50	46,8862
506,00	46,8745
506,50	46,8683
507,00	46,8669
507,50	46,8683
508,00	46,8790
508,50	46,8582
509,00	46,8578
509,50	46,8337
510,00	46,8414
510,50	46,8280
511,00	46,8083
511,50	46,8056
512,00	46,7933
512,50	46,7714
513,00	46,7712
513,50	46,7661
514,00	46,7555
514,50	46,7553
515,00	46,7872
515,50	46,7775
516,00	46,7693
516,50	46,7624
517,00	46,7739
517,50	46,7515
518,00	46,7483
518,50	46,7584
519,00	46,7572
519,50	46,7138
520,00	46,7480
520,50	46,7478
521,00	46,7282
521,50	46,7244
522,00	46,7308
522,50	46,7245
523,00	46,7071
523,50	46,6991
524,00	46,7276
524,50	46,7111
525,00	46,7201
525,50	46,7186
526,00	46,7147
526,50	46,6901
527,00	46,6761
527,50	46,6721
528,00	46,6604
528,50	46,6303
529,00	46,5921
529,50	46,5329
530,00	46,4839
530,50	46,4641
531,00	46,4327
531,50	46,4217
532,00	46,4101
532,50	46,3816
533,00	46,3700
533,50	46,3648
534,00	46,3729
534,50	46,3828
535,00	46,3578
535,50	46,3787
536,00	46,3613
536,50	46,3349
537,00	46,3523
537,50	46,3429
538,00	46,3607
538,50	46,3699
539,00	46,3659
539,50	46,3920
540,00	46,3772
540,50	46,3654
541,00	46,3737
541,50	46,3685
542,00	46,3618
542,50	46,3255
543,00	46,3197
543,50	46,3430
544,00	46,3429
544,50	46,3547
545,00	46,3522
545,50	46,3412
546,00	46,3405
546,50	46,3389
547,00	46,3713
547,50	46,3835
548,00	46,3886
548,50	46,3637
549,00	46,3449
549,50	46,3555
550,00	46,3723
550,50	46,3498
551,00	46,3597
551,50	46,3226
552,00	46,3242
552,50	46,3016
553,00	46,2916
553,50	46,3019
554,00	46,2892
554,50	46,2625
555,00	46,2667
555,50	46,2646
556,00	46,2793
556,50	46,2509
557,00	46,2381
557,50	46,2287
558,00	46,2110
558,50	46,2109
559,00	46,2222
559,50	46,2201
560,00	46,2040
560,50	46,1986
561,00	46,1974
561,50	46,1960
562,00	46,1926
562,50	46,1818
563,00	46,1700
563,50	46,1483
564,00	46,1409
564,50	46,1024
565,00	46,0804
565,50	46,0720
566,00	46,0631
566,50	46,0666
567,00	46,0802
567,50	46,0774
568,00	46,0842
568,50	46,0738
569,00	46,0895
569,50	46,1078
570,00	46,1057
570,50	46,1066
571,00	46,0916
571,50	46,0753
572,00	46,0858
572,50	46,0836
573,00	46,0848
573,50	46,1168
574,00	46,0989
574,50	46,0894
575,00	46,1020
575,50	46,1277
576,00	46,1373
576,50	46,1322
577,00	46,1403
577,50	46,1410
578,00	46,1266
578,50	46,1179
579,00	46,1288
579,50	46,1170
580,00	46,0987
580,50	46,0985
581,00	46,0948
581,50	46,1018
582,00	46,1058
582,50	46,1129
583,00	46,1118
583,50	46,1279
584,00	46,1657
584,50	46,1771
585,00	46,1973
585,50	46,2062
586,00	46,2113
586,50	46,2198
587,00	46,2370
587,50	46,2751
588,00	46,2748
588,50	46,2670
589,00	46,2734
589,50	46,2788
590,00	46,2918
590,50	46,3040
591,00	46,3075
591,50	46,2945
592,00	46,2982
592,50	46,2830
593,00	46,2786
593,50	46,2804
594,00	46,2622
594,50	46,2642
595,00	46,2351
595,50	46,2223
596,00	46,2212
596,50	46,2109
597,00	46,2323
597,50	46,2160
598,00	46,2107
598,50	46,2127
599,00	46,2020
599,50	46,2150
600,00	46,2217
