"2pac_esrtpb_4 - Storage 103155"
"Wavelength nm."	"R%"
185,00	2240,1956
185,50	1947,4478
186,00	1651,9141
186,50	1374,5801
187,00	1084,7355
187,50	791,0298
188,00	802,9390
188,50	813,0068
189,00	755,6182
189,50	681,0864
190,00	671,8322
190,50	666,6141
191,00	636,3041
191,50	616,4913
192,00	600,3445
192,50	575,3597
193,00	561,5626
193,50	548,0498
194,00	543,1868
194,50	531,3851
195,00	519,6820
195,50	512,6277
196,00	503,4898
196,50	496,2088
197,00	492,3151
197,50	489,7620
198,00	485,1704
198,50	480,1205
199,00	479,9040
199,50	472,9191
200,00	469,3658
200,50	465,7398
201,00	463,0758
201,50	464,3546
202,00	457,2336
202,50	451,6790
203,00	445,4304
203,50	433,2737
204,00	429,0653
204,50	426,7562
205,00	425,7455
205,50	418,1964
206,00	408,7488
206,50	408,6409
207,00	403,0901
207,50	398,2943
208,00	398,3649
208,50	393,0285
209,00	384,8798
209,50	380,1238
210,00	379,5145
210,50	376,6602
211,00	366,8302
211,50	360,4550
212,00	355,8921
212,50	349,6160
213,00	344,6154
213,50	339,7058
214,00	333,3850
214,50	326,6708
215,00	322,5358
215,50	319,9460
216,00	317,0591
216,50	314,1023
217,00	309,4258
217,50	306,0436
218,00	301,8973
218,50	298,4427
219,00	294,1288
219,50	289,6779
220,00	285,9143
220,50	282,2068
221,00	277,6138
221,50	273,6428
222,00	271,0222
222,50	267,5343
223,00	264,2205
223,50	261,3556
224,00	257,2424
224,50	254,1319
225,00	250,0713
225,50	245,9047
226,00	243,0734
226,50	238,8940
227,00	235,6105
227,50	232,6047
228,00	229,3917
228,50	226,8545
229,00	223,8293
229,50	221,4066
230,00	219,2949
230,50	217,2853
231,00	215,2941
231,50	213,1467
232,00	210,3555
232,50	208,2105
233,00	206,3972
233,50	204,1800
234,00	202,3040
234,50	200,3863
235,00	198,7032
235,50	196,8225
236,00	195,3991
236,50	194,4359
237,00	193,2080
237,50	191,8028
238,00	190,4842
238,50	189,2024
239,00	188,0800
239,50	186,5041
240,00	185,2817
240,50	184,3387
241,00	183,0802
241,50	182,3239
242,00	181,3414
242,50	180,9400
243,00	180,0509
243,50	179,5241
244,00	179,1580
244,50	178,6752
245,00	177,6727
245,50	176,9035
246,00	176,1632
246,50	175,7188
247,00	174,9460
247,50	174,1944
248,00	173,7177
248,50	172,9107
249,00	172,2110
249,50	171,8111
250,00	171,6262
250,50	171,1212
251,00	170,4685
251,50	170,1217
252,00	169,8107
252,50	169,1025
253,00	168,7716
253,50	168,5423
254,00	168,1594
254,50	167,7817
255,00	167,5047
255,50	167,0753
256,00	166,5170
256,50	166,1034
257,00	165,7363
257,50	165,4187
258,00	164,9213
258,50	164,3837
259,00	163,8233
259,50	163,3287
260,00	162,9392
260,50	162,2593
261,00	161,8346
261,50	161,6743
262,00	161,3031
262,50	160,7725
263,00	160,7965
263,50	160,4803
264,00	160,0044
264,50	159,6959
265,00	159,5594
265,50	159,2025
266,00	158,8330
266,50	158,2577
267,00	158,2442
267,50	157,5966
268,00	157,2847
268,50	156,8340
269,00	156,5711
269,50	156,4321
270,00	156,1144
270,50	155,4984
271,00	155,1647
271,50	154,7117
272,00	154,4112
272,50	153,9187
273,00	153,7281
273,50	153,3549
274,00	152,9360
274,50	152,5918
275,00	152,4329
275,50	151,9993
276,00	151,6235
276,50	151,3806
277,00	150,9069
277,50	150,6289
278,00	150,2063
278,50	149,8175
279,00	149,4031
279,50	148,9938
280,00	148,8377
280,50	148,4405
281,00	147,9796
281,50	147,7597
282,00	147,2672
282,50	146,9994
283,00	146,3048
283,50	145,9272
284,00	145,7095
284,50	145,1838
285,00	144,9608
285,50	144,5517
286,00	144,2417
286,50	143,6775
287,00	143,0656
287,50	142,8717
288,00	142,7575
288,50	142,1070
289,00	141,6590
289,50	141,1492
290,00	140,7278
290,50	140,0165
291,00	139,6251
291,50	139,2576
292,00	138,8605
292,50	138,1019
293,00	137,6790
293,50	137,3644
294,00	136,8329
294,50	136,5093
295,00	136,1532
295,50	135,7697
296,00	135,2546
296,50	134,8939
297,00	134,4772
297,50	134,0870
298,00	133,7512
298,50	133,4065
299,00	132,9692
299,50	132,6573
300,00	132,4078
300,50	132,1405
301,00	131,6055
301,50	131,3524
302,00	130,8916
302,50	130,4035
303,00	129,8960
303,50	129,3938
304,00	128,9949
304,50	128,4997
305,00	128,1489
305,50	127,7422
306,00	127,2244
306,50	126,9274
307,00	126,4259
307,50	126,0837
308,00	125,7008
308,50	125,2663
309,00	124,7813
309,50	124,2592
310,00	123,7007
310,50	123,2055
311,00	122,8855
311,50	122,4405
312,00	121,8561
312,50	121,3800
313,00	120,7633
313,50	120,4791
314,00	120,1496
314,50	119,9682
315,00	119,6674
315,50	119,2296
316,00	118,9490
316,50	118,6923
317,00	118,6502
317,50	118,6118
318,00	118,3214
318,50	118,0752
319,00	117,9921
319,50	117,7345
320,00	117,4324
320,50	117,0875
321,00	116,9060
321,50	116,4658
322,00	116,2252
322,50	115,8814
323,00	115,6869
323,50	115,1298
324,00	114,7866
324,50	114,4872
325,00	114,3162
325,50	114,1026
326,00	113,7723
326,50	113,5489
327,00	113,3844
327,50	112,9666
328,00	112,8034
328,50	112,7016
329,00	112,5336
329,50	112,4538
330,00	112,2373
330,50	111,9008
331,00	111,7192
331,50	111,4770
332,00	111,2396
332,50	111,0642
333,00	110,8715
333,50	110,6007
334,00	110,4698
334,50	110,3133
335,00	110,3318
335,50	109,9384
336,00	109,6721
336,50	109,5941
337,00	109,3710
337,50	109,1346
338,00	109,0266
338,50	108,6738
339,00	108,4070
339,50	108,0142
340,00	107,8766
340,50	107,7410
341,00	107,3735
341,50	107,0826
342,00	106,9360
342,50	106,5539
343,00	106,2446
343,50	105,9537
344,00	105,8251
344,50	105,5618
345,00	105,3257
345,50	105,2426
346,00	105,1103
346,50	104,7523
347,00	104,5939
347,50	104,3634
348,00	104,2132
348,50	104,0438
349,00	103,7448
349,50	103,4636
350,00	103,2696
350,50	103,0430
351,00	102,8154
351,50	102,6185
352,00	102,4263
352,50	102,1596
353,00	101,9598
353,50	101,8721
354,00	101,6826
354,50	101,4670
355,00	101,2625
355,50	101,0128
356,00	100,7025
356,50	100,5505
357,00	100,3203
357,50	100,1300
358,00	99,7709
358,50	99,5288
359,00	99,3049
359,50	99,1981
360,00	99,0347
360,50	98,9385
361,00	98,6630
361,50	98,5114
362,00	98,2444
362,50	98,2172
363,00	98,0908
363,50	97,7909
364,00	97,3966
364,50	97,2994
365,00	97,1010
365,50	96,9570
366,00	96,6940
366,50	96,5239
367,00	96,4186
367,50	96,3491
368,00	96,2839
368,50	96,2832
369,00	96,1012
369,50	96,0381
370,00	95,8881
370,50	95,9328
371,00	95,8804
371,50	95,7773
372,00	95,6771
372,50	95,5347
373,00	95,4503
373,50	95,4256
374,00	95,3151
374,50	95,3000
375,00	95,1582
375,50	95,1523
376,00	95,0180
376,50	94,8996
377,00	94,9540
377,50	94,8666
378,00	94,7457
378,50	94,6045
379,00	94,5189
379,50	94,3981
380,00	94,2661
380,50	94,1807
381,00	94,1725
381,50	94,0513
382,00	94,0846
382,50	94,0505
383,00	94,0557
383,50	93,9908
384,00	93,9696
384,50	93,8751
385,00	93,8661
385,50	93,7743
386,00	93,7629
386,50	93,6536
387,00	93,6043
387,50	93,5238
388,00	93,4719
388,50	93,4337
389,00	93,3857
389,50	93,3406
390,00	93,2287
390,50	93,0946
391,00	92,9578
391,50	92,9130
392,00	92,8438
392,50	92,7573
393,00	92,6259
393,50	92,4971
394,00	92,3600
394,50	92,3124
395,00	92,2052
395,50	92,1025
396,00	91,9651
396,50	91,8788
397,00	91,8375
397,50	91,7851
398,00	91,7901
398,50	91,6804
399,00	91,5876
399,50	91,5728
400,00	91,5215
400,50	91,4703
401,00	91,4409
401,50	91,3749
402,00	91,3254
402,50	91,2562
403,00	91,2365
403,50	91,2472
404,00	91,2487
404,50	91,3119
405,00	91,3704
405,50	91,4080
406,00	91,4604
406,50	91,6117
407,00	91,7174
407,50	91,8906
408,00	92,0517
408,50	92,2263
409,00	92,3281
409,50	92,4935
410,00	92,7106
410,50	92,9367
411,00	93,0924
411,50	93,2897
412,00	93,4598
412,50	93,6651
413,00	93,8291
413,50	94,0846
414,00	94,2748
414,50	94,4999
415,00	94,7171
415,50	94,9563
416,00	95,1050
416,50	95,2978
417,00	95,4789
417,50	95,6505
418,00	95,8430
418,50	96,0278
419,00	96,1489
419,50	96,2967
420,00	96,4045
420,50	96,5986
421,00	96,7679
421,50	96,9112
422,00	97,0190
422,50	97,1172
423,00	97,2212
423,50	97,2723
424,00	97,3137
424,50	97,3636
425,00	97,4165
425,50	97,4329
426,00	97,4335
426,50	97,4896
427,00	97,5115
427,50	97,5678
428,00	97,6409
428,50	97,7084
429,00	97,7790
429,50	97,8075
430,00	97,8999
430,50	97,9520
431,00	97,9617
431,50	98,0361
432,00	98,1027
432,50	98,1436
433,00	98,1622
433,50	98,1799
434,00	98,2353
434,50	98,1941
435,00	98,1760
435,50	98,2242
436,00	98,2150
436,50	98,1917
437,00	98,1901
437,50	98,1668
438,00	98,1569
438,50	98,0899
439,00	98,1198
439,50	98,1476
440,00	98,0951
440,50	98,1199
441,00	98,1159
441,50	98,1236
442,00	98,1324
442,50	98,1501
443,00	98,2575
443,50	98,2158
444,00	98,2094
444,50	98,2459
445,00	98,2208
445,50	98,2212
446,00	98,1540
446,50	98,1746
447,00	98,1997
447,50	98,1827
448,00	98,2336
448,50	98,2299
449,00	98,2197
449,50	98,2561
450,00	98,2512
450,50	98,3514
451,00	98,3373
451,50	98,3542
452,00	98,3581
452,50	98,4031
453,00	98,4370
453,50	98,4551
454,00	98,5025
454,50	98,5089
455,00	98,4867
455,50	98,5197
456,00	98,5004
456,50	98,4942
457,00	98,4698
457,50	98,4829
458,00	98,5279
458,50	98,4970
459,00	98,4984
459,50	98,5091
460,00	98,5306
460,50	98,5218
461,00	98,5536
461,50	98,5653
462,00	98,5639
462,50	98,5147
463,00	98,4883
463,50	98,4730
464,00	98,4664
464,50	98,4219
465,00	98,4635
465,50	98,4538
466,00	98,3915
466,50	98,3763
467,00	98,3801
467,50	98,3944
468,00	98,4334
468,50	98,4646
469,00	98,4869
469,50	98,4902
470,00	98,4960
470,50	98,5442
471,00	98,5681
471,50	98,5968
472,00	98,5636
472,50	98,5809
473,00	98,5323
473,50	98,5334
474,00	98,5081
474,50	98,4673
475,00	98,5046
475,50	98,4738
476,00	98,4717
476,50	98,4683
477,00	98,4564
477,50	98,4888
478,00	98,4933
478,50	98,4896
479,00	98,4829
479,50	98,4451
480,00	98,4793
480,50	98,4762
481,00	98,5126
481,50	98,5201
482,00	98,4800
482,50	98,4874
483,00	98,4962
483,50	98,4920
484,00	98,5199
484,50	98,5274
485,00	98,5386
485,50	98,5438
486,00	98,5374
486,50	98,5976
487,00	98,5790
487,50	98,5838
488,00	98,6353
488,50	98,6451
489,00	98,6713
489,50	98,6660
490,00	98,6460
490,50	98,6171
491,00	98,5648
491,50	98,5775
492,00	98,5550
492,50	98,5328
493,00	98,4641
493,50	98,4090
494,00	98,4587
494,50	98,4776
495,00	98,5371
495,50	98,5920
496,00	98,5813
496,50	98,5793
497,00	98,6412
497,50	98,6606
498,00	98,6849
498,50	98,6134
499,00	98,6077
499,50	98,5681
500,00	98,5527
500,50	98,5627
501,00	98,5853
501,50	98,5493
502,00	98,5752
502,50	98,5307
503,00	98,5522
503,50	98,5561
504,00	98,5715
504,50	98,5831
505,00	98,5904
505,50	98,5310
506,00	98,5574
506,50	98,5706
507,00	98,6562
507,50	98,6339
508,00	98,6527
508,50	98,6170
509,00	98,5870
509,50	98,5699
510,00	98,6031
510,50	98,5473
511,00	98,5466
511,50	98,4810
512,00	98,5062
512,50	98,4877
513,00	98,5276
513,50	98,5420
514,00	98,5615
514,50	98,5916
515,00	98,6691
515,50	98,6205
516,00	98,6123
516,50	98,6043
517,00	98,5530
517,50	98,5406
518,00	98,5299
518,50	98,5035
519,00	98,5056
519,50	98,4186
520,00	98,4862
520,50	98,5017
521,00	98,5130
521,50	98,5574
522,00	98,5124
522,50	98,5361
523,00	98,5439
523,50	98,5045
524,00	98,5504
524,50	98,4950
525,00	98,5084
525,50	98,4487
526,00	98,3873
526,50	98,3995
527,00	98,3874
527,50	98,3399
528,00	98,3340
528,50	98,2978
529,00	98,3040
529,50	98,2646
530,00	98,2550
530,50	98,3424
531,00	98,2787
531,50	98,2753
532,00	98,2841
532,50	98,3051
533,00	98,2969
533,50	98,2966
534,00	98,3149
534,50	98,3570
535,00	98,3612
535,50	98,4009
536,00	98,3926
536,50	98,4162
537,00	98,4355
537,50	98,4487
538,00	98,4589
538,50	98,4520
539,00	98,4704
539,50	98,4298
540,00	98,4582
540,50	98,4224
541,00	98,4186
541,50	98,3979
542,00	98,4007
542,50	98,3837
543,00	98,4100
543,50	98,4110
544,00	98,4354
544,50	98,4339
545,00	98,4210
545,50	98,4356
546,00	98,4436
546,50	98,4159
547,00	98,4386
547,50	98,4032
548,00	98,4098
548,50	98,4140
549,00	98,4268
549,50	98,4693
550,00	98,4960
550,50	98,4706
551,00	98,4794
551,50	98,4391
552,00	98,4986
552,50	98,4784
553,00	98,4366
553,50	98,4526
554,00	98,4362
554,50	98,3650
555,00	98,3946
555,50	98,4165
556,00	98,3911
556,50	98,3320
557,00	98,2956
557,50	98,2915
558,00	98,2718
558,50	98,2662
559,00	98,2907
559,50	98,2600
560,00	98,2684
560,50	98,2924
561,00	98,3064
561,50	98,3324
562,00	98,3585
562,50	98,3504
563,00	98,3603
563,50	98,3541
564,00	98,3457
564,50	98,2952
565,00	98,2836
565,50	98,2811
566,00	98,2546
566,50	98,2458
567,00	98,2790
567,50	98,2889
568,00	98,3387
568,50	98,3138
569,00	98,3609
569,50	98,4074
570,00	98,4097
570,50	98,4572
571,00	98,4241
571,50	98,3868
572,00	98,3737
572,50	98,2715
573,00	98,3208
573,50	98,3212
574,00	98,2723
574,50	98,2605
575,00	98,2032
575,50	98,2093
576,00	98,2179
576,50	98,2133
577,00	98,2841
577,50	98,2966
578,00	98,2696
578,50	98,2546
579,00	98,2742
579,50	98,2983
580,00	98,2945
580,50	98,2774
581,00	98,2459
581,50	98,2754
582,00	98,2852
582,50	98,2731
583,00	98,2580
583,50	98,2560
584,00	98,2981
584,50	98,2758
585,00	98,2578
585,50	98,2705
586,00	98,2218
586,50	98,2027
587,00	98,2547
587,50	98,3227
588,00	98,2936
588,50	98,2409
589,00	98,2933
589,50	98,3002
590,00	98,3121
590,50	98,3744
591,00	98,3548
591,50	98,2987
592,00	98,2468
592,50	98,2603
593,00	98,2716
593,50	98,2316
594,00	98,2024
594,50	98,2379
595,00	98,1690
595,50	98,1764
596,00	98,1671
596,50	98,1798
597,00	98,1604
597,50	98,1301
598,00	98,1190
598,50	98,1178
599,00	98,0495
599,50	98,0319
600,00	97,9924
