"pen_argset_A_TopSurface_corner1 - Storage 114602"
"Wavelength nm."	"R%"
185,00	182,9949
185,50	167,5311
186,00	156,1318
186,50	141,6107
187,00	135,9690
187,50	124,5665
188,00	116,4121
188,50	123,5629
189,00	120,9904
189,50	117,2690
190,00	122,2460
190,50	120,2582
191,00	122,1778
191,50	115,0855
192,00	114,8575
192,50	112,4192
193,00	109,2533
193,50	103,1682
194,00	101,9510
194,50	99,3657
195,00	99,5977
195,50	99,9079
196,00	98,6877
196,50	96,3608
197,00	96,5851
197,50	95,4612
198,00	95,8081
198,50	95,1272
199,00	94,2220
199,50	92,3131
200,00	90,4114
200,50	89,4635
201,00	88,9052
201,50	89,2534
202,00	88,6008
202,50	87,4903
203,00	87,1763
203,50	85,5777
204,00	84,9609
204,50	84,3255
205,00	83,9767
205,50	83,0103
206,00	81,0814
206,50	81,2144
207,00	80,7467
207,50	80,1645
208,00	79,9722
208,50	79,6297
209,00	78,2910
209,50	77,3045
210,00	76,9155
210,50	76,4733
211,00	74,5780
211,50	73,2779
212,00	72,3480
212,50	71,2518
213,00	70,2618
213,50	69,3803
214,00	68,6961
214,50	67,6096
215,00	66,9832
215,50	66,4826
216,00	66,1250
216,50	65,3820
217,00	64,7813
217,50	64,3774
218,00	64,0324
218,50	63,3858
219,00	62,7739
219,50	62,1319
220,00	61,6202
220,50	61,1380
221,00	60,6038
221,50	60,1588
222,00	59,7385
222,50	59,1236
223,00	58,7120
223,50	58,0937
224,00	57,5690
224,50	57,1640
225,00	56,6459
225,50	56,2574
226,00	55,9097
226,50	55,4787
227,00	55,1543
227,50	54,7750
228,00	54,6375
228,50	54,3324
229,00	53,9128
229,50	53,5314
230,00	53,2981
230,50	52,9981
231,00	52,6288
231,50	52,3453
232,00	51,9862
232,50	51,6545
233,00	51,3447
233,50	51,1299
234,00	51,1060
234,50	50,8300
235,00	50,6592
235,50	50,5004
236,00	50,3415
236,50	50,2487
237,00	50,0827
237,50	50,0127
238,00	50,0022
238,50	49,7934
239,00	49,6635
239,50	49,4932
240,00	49,3750
240,50	49,3573
241,00	49,2700
241,50	49,2941
242,00	49,2306
242,50	49,1510
243,00	49,1662
243,50	49,1881
244,00	49,2222
244,50	49,3026
245,00	49,1420
245,50	49,0912
246,00	48,9971
246,50	49,0080
247,00	48,9582
247,50	48,8070
248,00	48,8183
248,50	48,8005
249,00	48,7161
249,50	48,8263
250,00	48,9161
250,50	49,0447
251,00	49,0549
251,50	49,1844
252,00	49,3137
252,50	49,3328
253,00	49,4376
253,50	49,6575
254,00	49,7668
254,50	49,9282
255,00	49,9767
255,50	50,0395
256,00	50,0152
256,50	50,0677
257,00	50,1042
257,50	50,2274
258,00	50,3114
258,50	50,1972
259,00	50,2195
259,50	50,2521
260,00	50,3667
260,50	50,4409
261,00	50,4785
261,50	50,5910
262,00	50,5352
262,50	50,4422
263,00	50,6737
263,50	50,7133
264,00	50,6848
264,50	50,7372
265,00	50,7156
265,50	50,7607
266,00	50,6971
266,50	50,7074
267,00	50,7132
267,50	50,6574
268,00	50,5263
268,50	50,5480
269,00	50,4616
269,50	50,5152
270,00	50,4502
270,50	50,3744
271,00	50,3454
271,50	50,3311
272,00	50,3895
272,50	50,3982
273,00	50,3386
273,50	50,2689
274,00	50,2771
274,50	50,2598
275,00	50,2945
275,50	50,2621
276,00	50,1676
276,50	50,0197
277,00	50,0272
277,50	49,9458
278,00	49,9342
278,50	49,8646
279,00	49,8301
279,50	49,7342
280,00	49,7526
280,50	49,7953
281,00	49,7588
281,50	49,6597
282,00	49,7064
282,50	49,7083
283,00	49,5876
283,50	49,5112
284,00	49,6262
284,50	49,5396
285,00	49,5360
285,50	49,5534
286,00	49,5763
286,50	49,4544
287,00	49,3177
287,50	49,3343
288,00	49,4456
288,50	49,3291
289,00	49,2935
289,50	49,2403
290,00	49,1966
290,50	49,0779
291,00	49,1073
291,50	49,1329
292,00	49,0803
292,50	48,9281
293,00	48,9390
293,50	48,9882
294,00	48,9702
294,50	48,9160
295,00	48,9443
295,50	48,9035
296,00	48,8509
296,50	48,8828
297,00	48,8691
297,50	48,8757
298,00	48,8118
298,50	48,7948
299,00	48,8470
299,50	48,8660
300,00	48,9610
300,50	48,9806
301,00	48,9114
301,50	48,9701
302,00	48,8573
302,50	48,8806
303,00	48,8410
303,50	48,7106
304,00	48,6941
304,50	48,6058
305,00	48,6596
305,50	48,6087
306,00	48,5086
306,50	48,5200
307,00	48,4666
307,50	48,4907
308,00	48,5320
308,50	48,7433
309,00	48,9637
309,50	49,0906
310,00	49,2593
310,50	49,4661
311,00	49,7279
311,50	49,7823
312,00	49,8872
312,50	50,0311
313,00	49,9332
313,50	49,8178
314,00	49,7657
314,50	49,6561
315,00	49,5074
315,50	49,3607
316,00	49,4557
316,50	49,4125
317,00	49,3526
317,50	49,4084
318,00	49,4649
318,50	49,5016
319,00	49,6447
319,50	49,7742
320,00	49,8343
320,50	49,8471
321,00	49,8345
321,50	49,9118
322,00	49,9122
322,50	49,8426
323,00	49,8654
323,50	49,7893
324,00	49,8646
324,50	49,9063
325,00	49,8754
325,50	49,9203
326,00	49,8695
326,50	49,7744
327,00	49,7629
327,50	49,6046
328,00	49,5560
328,50	49,4163
329,00	49,2945
329,50	49,2785
330,00	49,2276
330,50	49,1546
331,00	49,2040
331,50	49,1733
332,00	49,1695
332,50	49,2367
333,00	49,2817
333,50	49,2473
334,00	49,2162
334,50	49,2036
335,00	49,2791
335,50	49,2013
336,00	49,2193
336,50	49,2107
337,00	49,1658
337,50	49,0323
338,00	49,0582
338,50	49,0184
339,00	49,0128
339,50	48,9401
340,00	48,9740
340,50	48,9209
341,00	48,9396
341,50	48,9019
342,00	48,9905
342,50	48,9230
343,00	48,8986
343,50	48,8498
344,00	48,7742
344,50	48,7052
345,00	48,7231
345,50	48,7078
346,00	48,7068
346,50	48,5664
347,00	48,5824
347,50	48,6132
348,00	48,5950
348,50	48,5943
349,00	48,5197
349,50	48,4244
350,00	48,3923
350,50	48,3906
351,00	48,3889
351,50	48,3453
352,00	48,2329
352,50	48,1864
353,00	48,2063
353,50	48,2493
354,00	48,2435
354,50	48,2208
355,00	48,1780
355,50	48,1669
356,00	48,1122
356,50	48,1387
357,00	48,0974
357,50	48,0658
358,00	47,9708
358,50	48,1730
359,00	48,3249
359,50	48,4872
360,00	48,6293
360,50	48,7815
361,00	48,8482
361,50	49,0234
362,00	49,2030
362,50	49,4132
363,00	49,3669
363,50	49,2955
364,00	49,2052
364,50	49,2225
365,00	49,2528
365,50	49,3024
366,00	49,2975
366,50	49,2065
367,00	49,2614
367,50	49,2440
368,00	49,2988
368,50	49,2910
369,00	49,2716
369,50	49,2580
370,00	49,2237
370,50	49,2357
371,00	49,2117
371,50	49,1425
372,00	49,1110
372,50	49,0324
373,00	49,0433
373,50	49,0097
374,00	48,9595
374,50	48,9578
375,00	48,8721
375,50	48,8620
376,00	48,7469
376,50	48,6871
377,00	48,6478
377,50	48,4875
378,00	48,3330
378,50	48,1645
379,00	48,0010
379,50	47,8012
380,00	47,6343
380,50	47,4759
381,00	47,2861
381,50	47,1009
382,00	46,9930
382,50	46,8428
383,00	46,7008
383,50	46,5150
384,00	46,4433
384,50	46,2990
385,00	46,2171
385,50	46,1300
386,00	46,0436
386,50	45,9756
387,00	45,9262
387,50	45,8785
388,00	45,8689
388,50	45,8215
389,00	45,8057
389,50	45,7823
390,00	45,7354
390,50	45,6906
391,00	45,6515
391,50	45,6430
392,00	45,6195
392,50	45,5714
393,00	45,5139
393,50	45,4864
394,00	45,4445
394,50	45,4327
395,00	45,4097
395,50	45,4013
396,00	45,3717
396,50	45,3889
397,00	45,4071
397,50	45,4423
398,00	45,4721
398,50	45,4541
399,00	45,4486
399,50	45,4589
400,00	45,4350
400,50	45,4470
401,00	45,4297
401,50	45,3951
402,00	45,3800
402,50	45,3340
403,00	45,2815
403,50	45,2769
404,00	45,2611
404,50	45,2275
405,00	45,1995
405,50	45,1782
406,00	45,1839
406,50	45,1525
407,00	45,1710
407,50	45,2051
408,00	45,1798
408,50	45,1736
409,00	45,1563
409,50	45,1133
410,00	45,1222
410,50	45,0831
411,00	45,0763
411,50	45,0436
412,00	45,0292
412,50	45,0238
413,00	44,9990
413,50	45,0077
414,00	45,0296
414,50	44,9847
415,00	44,9769
415,50	44,9820
416,00	44,9552
416,50	44,9224
417,00	44,9010
417,50	44,9020
418,00	44,8846
418,50	44,7469
419,00	44,6478
419,50	44,5604
420,00	44,4225
420,50	44,3182
421,00	44,2388
421,50	44,1356
422,00	44,0145
422,50	43,9316
423,00	43,9516
423,50	43,9309
424,00	43,9298
424,50	43,9198
425,00	43,8987
425,50	43,8812
426,00	43,8646
426,50	43,8506
427,00	43,8126
427,50	43,8182
428,00	43,8183
428,50	43,7931
429,00	43,8160
429,50	43,8301
430,00	43,8343
430,50	43,8532
431,00	43,8662
431,50	43,8691
432,00	43,8720
432,50	43,8901
433,00	43,8949
433,50	43,8863
434,00	43,8923
434,50	43,8628
435,00	43,8525
435,50	43,8620
436,00	43,8690
436,50	43,8526
437,00	43,8273
437,50	43,8390
438,00	43,8362
438,50	43,8090
439,00	43,8218
439,50	43,8174
440,00	43,7947
440,50	43,8083
441,00	43,7903
441,50	43,7843
442,00	43,7750
442,50	43,7717
443,00	43,7892
443,50	43,7771
444,00	43,7613
444,50	43,7651
445,00	43,7346
445,50	43,7292
446,00	43,7263
446,50	43,6999
447,00	43,7038
447,50	43,7162
448,00	43,7342
448,50	43,7349
449,00	43,7245
449,50	43,7267
450,00	43,7510
450,50	43,7749
451,00	43,7785
451,50	43,7806
452,00	43,7581
452,50	43,7508
453,00	43,7422
453,50	43,7273
454,00	43,7420
454,50	43,7074
455,00	43,6787
455,50	43,6774
456,00	43,6325
456,50	43,6236
457,00	43,6108
457,50	43,6213
458,00	43,6344
458,50	43,6254
459,00	43,6139
459,50	43,6079
460,00	43,5991
460,50	43,5993
461,00	43,5705
461,50	43,5682
462,00	43,5535
462,50	43,5312
463,00	43,4956
463,50	43,4895
464,00	43,4833
464,50	43,4710
465,00	43,4894
465,50	43,4932
466,00	43,4681
466,50	43,4525
467,00	43,4399
467,50	43,4324
468,00	43,4157
468,50	43,3976
469,00	43,3783
469,50	43,3576
470,00	43,3454
470,50	43,3230
471,00	43,3255
471,50	43,3297
472,00	43,3267
472,50	43,3476
473,00	43,3341
473,50	43,3180
474,00	43,2800
474,50	43,2638
475,00	43,2826
475,50	43,2643
476,00	43,2613
476,50	43,2541
477,00	43,2408
477,50	43,2572
478,00	43,2675
478,50	43,2846
479,00	43,2792
479,50	43,2497
480,00	43,2552
480,50	43,2476
481,00	43,2452
481,50	43,2080
482,00	43,1929
482,50	43,1899
483,00	43,1971
483,50	43,1818
484,00	43,2173
484,50	43,2103
485,00	43,1945
485,50	43,1929
486,00	43,1915
486,50	43,1800
487,00	43,1820
487,50	43,1607
488,00	43,1701
488,50	43,1563
489,00	43,1342
489,50	43,1494
490,00	43,1477
490,50	43,1604
491,00	43,1636
491,50	43,1402
492,00	43,1293
492,50	43,1495
493,00	43,1320
493,50	43,1319
494,00	43,1362
494,50	43,1391
495,00	43,1579
495,50	43,1690
496,00	43,1668
496,50	43,1786
497,00	43,1864
497,50	43,1780
498,00	43,2036
498,50	43,1751
499,00	43,1763
499,50	43,1691
500,00	43,1559
500,50	43,1718
501,00	43,1771
501,50	43,1539
502,00	43,1448
502,50	43,1369
503,00	43,1529
503,50	43,1281
504,00	43,1335
504,50	43,1235
505,00	43,1323
505,50	43,1230
506,00	43,1259
506,50	43,1312
507,00	43,1310
507,50	43,1079
508,00	43,1293
508,50	43,0977
509,00	43,0869
509,50	43,0674
510,00	43,0453
510,50	43,0256
511,00	43,0320
511,50	43,0103
512,00	43,0335
512,50	43,0012
513,00	43,0011
513,50	43,0201
514,00	43,0187
514,50	43,0376
515,00	43,0755
515,50	43,0596
516,00	43,0710
516,50	43,0511
517,00	43,0560
517,50	43,0758
518,00	43,0710
518,50	43,0765
519,00	43,0681
519,50	43,0425
520,00	43,0470
520,50	43,0481
521,00	43,0504
521,50	43,0716
522,00	43,0460
522,50	43,0364
523,00	43,0314
523,50	43,0283
524,00	43,0397
524,50	43,0406
525,00	43,0347
525,50	43,0062
526,00	42,9827
526,50	42,9719
527,00	42,9570
527,50	42,9189
528,00	42,9045
528,50	42,8653
529,00	42,8341
529,50	42,7724
530,00	42,7500
530,50	42,7240
531,00	42,6868
531,50	42,6568
532,00	42,6410
532,50	42,6094
533,00	42,5769
533,50	42,5831
534,00	42,6050
534,50	42,6008
535,00	42,5898
535,50	42,5945
536,00	42,6005
536,50	42,6107
537,00	42,6116
537,50	42,6157
538,00	42,6018
538,50	42,5771
539,00	42,5863
539,50	42,5774
540,00	42,5802
540,50	42,5602
541,00	42,5416
541,50	42,5355
542,00	42,5413
542,50	42,5420
543,00	42,5623
543,50	42,5570
544,00	42,5809
544,50	42,5465
545,00	42,5448
545,50	42,5420
546,00	42,5361
546,50	42,5215
547,00	42,5107
547,50	42,4913
548,00	42,4867
548,50	42,4727
549,00	42,4864
549,50	42,4836
550,00	42,4718
550,50	42,4736
551,00	42,4546
551,50	42,4470
552,00	42,4627
552,50	42,4533
553,00	42,4301
553,50	42,4333
554,00	42,4114
554,50	42,4156
555,00	42,4035
555,50	42,4191
556,00	42,4081
556,50	42,3786
557,00	42,3586
557,50	42,3517
558,00	42,3465
558,50	42,3383
559,00	42,3412
559,50	42,3479
560,00	42,3425
560,50	42,3256
561,00	42,3214
561,50	42,3171
562,00	42,3098
562,50	42,2874
563,00	42,3028
563,50	42,2839
564,00	42,2676
564,50	42,2377
565,00	42,2443
565,50	42,2411
566,00	42,2324
566,50	42,2269
567,00	42,2202
567,50	42,1911
568,00	42,1963
568,50	42,1769
569,00	42,1883
569,50	42,1872
570,00	42,1793
570,50	42,1858
571,00	42,1850
571,50	42,1869
572,00	42,2203
572,50	42,2123
573,00	42,2273
573,50	42,2288
574,00	42,2078
574,50	42,2046
575,00	42,2049
575,50	42,2001
576,00	42,1959
576,50	42,1833
577,00	42,1779
577,50	42,1812
578,00	42,1726
578,50	42,1822
579,00	42,1811
579,50	42,1768
580,00	42,1758
580,50	42,1657
581,00	42,1608
581,50	42,1761
582,00	42,1782
582,50	42,1755
583,00	42,1787
583,50	42,1770
584,00	42,1997
584,50	42,1934
585,00	42,2222
585,50	42,2111
586,00	42,2183
586,50	42,2162
587,00	42,2356
587,50	42,2596
588,00	42,2727
588,50	42,2693
589,00	42,2923
589,50	42,2893
590,00	42,3069
590,50	42,3224
591,00	42,3154
591,50	42,3272
592,00	42,3278
592,50	42,3396
593,00	42,3507
593,50	42,3583
594,00	42,3855
594,50	42,3990
595,00	42,3905
595,50	42,3964
596,00	42,3947
596,50	42,3925
597,00	42,3851
597,50	42,3755
598,00	42,3616
598,50	42,3322
599,00	42,3166
599,50	42,2986
600,00	42,2960
