"pen_argset_B_back_corner4_gentlePress - Storage 130327"
"Wavelength nm."	"R%"
185,00	158,7016
185,50	152,0635
186,00	147,6254
186,50	137,3091
187,00	131,9111
187,50	131,6826
188,00	136,3331
188,50	142,0460
189,00	129,3053
189,50	118,9920
190,00	120,7415
190,50	117,8233
191,00	121,0309
191,50	118,8165
192,00	111,5104
192,50	107,5296
193,00	104,5208
193,50	101,1805
194,00	99,1729
194,50	97,7913
195,00	96,2220
195,50	96,8793
196,00	95,3407
196,50	95,3475
197,00	94,1666
197,50	93,7741
198,00	94,3776
198,50	94,3467
199,00	92,2716
199,50	91,7757
200,00	90,2394
200,50	90,3177
201,00	89,5131
201,50	90,4360
202,00	88,3047
202,50	87,4494
203,00	86,8142
203,50	85,7140
204,00	85,6828
204,50	84,6070
205,00	84,2574
205,50	82,9465
206,00	80,9937
206,50	81,3888
207,00	80,6295
207,50	79,8784
208,00	79,2180
208,50	78,5352
209,00	77,4572
209,50	76,7341
210,00	76,6635
210,50	76,0184
211,00	74,3075
211,50	73,4305
212,00	72,4509
212,50	71,6590
213,00	70,9446
213,50	70,0316
214,00	69,2164
214,50	67,8714
215,00	67,2879
215,50	66,9195
216,00	66,1627
216,50	65,8009
217,00	65,2672
217,50	64,6247
218,00	64,1632
218,50	63,4700
219,00	62,9420
219,50	62,3176
220,00	61,8128
220,50	61,3723
221,00	60,7679
221,50	60,2978
222,00	60,0049
222,50	59,5159
223,00	59,2155
223,50	58,6992
224,00	58,1586
224,50	57,7048
225,00	57,2006
225,50	56,6034
226,00	56,1367
226,50	55,5773
227,00	55,2922
227,50	54,8692
228,00	54,5620
228,50	54,3174
229,00	54,0709
229,50	53,7347
230,00	53,5292
230,50	53,4151
231,00	53,1377
231,50	52,7846
232,00	52,4005
232,50	52,1335
233,00	51,9661
233,50	51,6343
234,00	51,4108
234,50	51,1161
235,00	50,8271
235,50	50,6858
236,00	50,5328
236,50	50,4629
237,00	50,3010
237,50	50,0631
238,00	49,9560
238,50	49,8409
239,00	49,7922
239,50	49,6867
240,00	49,5102
240,50	49,4157
241,00	49,3012
241,50	49,2633
242,00	49,1512
242,50	49,1523
243,00	49,1450
243,50	49,1292
244,00	49,1061
244,50	49,1154
245,00	48,9745
245,50	48,8825
246,00	48,8175
246,50	48,8490
247,00	48,8268
247,50	48,8105
248,00	48,8912
248,50	48,8741
249,00	48,8117
249,50	48,8829
250,00	49,0758
250,50	49,1551
251,00	49,1950
251,50	49,2415
252,00	49,3159
252,50	49,2415
253,00	49,3451
253,50	49,5426
254,00	49,6394
254,50	49,7243
255,00	49,6995
255,50	49,7358
256,00	49,7784
256,50	49,8288
257,00	49,9392
257,50	50,0290
258,00	50,0656
258,50	50,0965
259,00	50,1524
259,50	50,2129
260,00	50,2636
260,50	50,3293
261,00	50,3325
261,50	50,4095
262,00	50,4209
262,50	50,3500
263,00	50,4175
263,50	50,4280
264,00	50,4613
264,50	50,5297
265,00	50,5033
265,50	50,5492
266,00	50,5509
266,50	50,4561
267,00	50,5308
267,50	50,5653
268,00	50,5220
268,50	50,5231
269,00	50,3855
269,50	50,4381
270,00	50,4226
270,50	50,3662
271,00	50,4223
271,50	50,4375
272,00	50,3408
272,50	50,3022
273,00	50,3354
273,50	50,4359
274,00	50,3714
274,50	50,3336
275,00	50,3633
275,50	50,2636
276,00	50,1758
276,50	50,1812
277,00	50,0752
277,50	50,0552
278,00	49,9684
278,50	49,9030
279,00	49,8710
279,50	49,7461
280,00	49,7213
280,50	49,7187
281,00	49,6232
281,50	49,5837
282,00	49,5283
282,50	49,5353
283,00	49,4362
283,50	49,3598
284,00	49,3900
284,50	49,3229
285,00	49,2952
285,50	49,3323
286,00	49,3697
286,50	49,2467
287,00	49,1137
287,50	49,1452
288,00	49,1739
288,50	49,0392
289,00	49,0968
289,50	49,1532
290,00	49,0651
290,50	48,9690
291,00	48,9412
291,50	48,9450
292,00	48,9311
292,50	48,8097
293,00	48,8688
293,50	48,7664
294,00	48,6630
294,50	48,6824
295,00	48,6977
295,50	48,7219
296,00	48,6777
296,50	48,7007
297,00	48,7597
297,50	48,6441
298,00	48,7175
298,50	48,6708
299,00	48,6736
299,50	48,6525
300,00	48,6891
300,50	48,7806
301,00	48,7063
301,50	48,6874
302,00	48,7247
302,50	48,6965
303,00	48,6967
303,50	48,6870
304,00	48,6988
304,50	48,5543
305,00	48,5591
305,50	48,4545
306,00	48,3214
306,50	48,3540
307,00	48,3565
307,50	48,3711
308,00	48,3940
308,50	48,5537
309,00	48,8070
309,50	48,9217
310,00	49,2068
310,50	49,3924
311,00	49,6098
311,50	49,6816
312,00	49,7194
312,50	49,8435
313,00	49,7426
313,50	49,6699
314,00	49,6615
314,50	49,6451
315,00	49,7100
315,50	49,5797
316,00	49,6282
316,50	49,6872
317,00	49,6324
317,50	49,6847
318,00	49,7422
318,50	49,7106
319,00	49,7246
319,50	49,7430
320,00	49,7598
320,50	49,7708
321,00	49,6830
321,50	49,6586
322,00	49,6573
322,50	49,6365
323,00	49,6590
323,50	49,5687
324,00	49,5345
324,50	49,5893
325,00	49,5293
325,50	49,5952
326,00	49,5818
326,50	49,6083
327,00	49,5754
327,50	49,4731
328,00	49,4543
328,50	49,4270
329,00	49,3184
329,50	49,3054
330,00	49,3288
330,50	49,2819
331,00	49,2113
331,50	49,1983
332,00	49,1951
332,50	49,1860
333,00	49,2316
333,50	49,2308
334,00	49,2741
334,50	49,1513
335,00	49,2314
335,50	49,2036
336,00	49,1829
336,50	49,1233
337,00	49,0711
337,50	48,9596
338,00	48,9860
338,50	48,9196
339,00	48,9918
339,50	48,8592
340,00	48,8441
340,50	48,8012
341,00	48,8547
341,50	48,8900
342,00	48,8466
342,50	48,7342
343,00	48,6176
343,50	48,5398
344,00	48,5832
344,50	48,6328
345,00	48,6125
345,50	48,5882
346,00	48,5469
346,50	48,5318
347,00	48,5600
347,50	48,5920
348,00	48,5642
348,50	48,5422
349,00	48,4138
349,50	48,4205
350,00	48,3740
350,50	48,3611
351,00	48,3495
351,50	48,3099
352,00	48,3082
352,50	48,2682
353,00	48,2665
353,50	48,3312
354,00	48,2921
354,50	48,2862
355,00	48,2347
355,50	48,1616
356,00	48,0830
356,50	48,0174
357,00	47,9686
357,50	47,9497
358,00	47,8301
358,50	48,0229
359,00	48,1096
359,50	48,2949
360,00	48,5026
360,50	48,6899
361,00	48,8942
361,50	49,1031
362,00	49,2454
362,50	49,4778
363,00	49,4482
363,50	49,4539
364,00	49,3988
364,50	49,4393
365,00	49,4498
365,50	49,3936
366,00	49,3680
366,50	49,2670
367,00	49,2424
367,50	49,2199
368,00	49,2497
368,50	49,2379
369,00	49,1828
369,50	49,2006
370,00	49,1912
370,50	49,2252
371,00	49,2738
371,50	49,2425
372,00	49,2222
372,50	49,1703
373,00	49,1415
373,50	49,0864
374,00	48,9748
374,50	48,9341
375,00	48,8309
375,50	48,7683
376,00	48,6983
376,50	48,5666
377,00	48,4813
377,50	48,3636
378,00	48,2154
378,50	48,0693
379,00	47,8714
379,50	47,6694
380,00	47,4783
380,50	47,2864
381,00	47,1591
381,50	46,9589
382,00	46,8160
382,50	46,6605
383,00	46,5503
383,50	46,4285
384,00	46,3007
384,50	46,2008
385,00	46,0894
385,50	45,9528
386,00	45,8949
386,50	45,8153
387,00	45,7564
387,50	45,6608
388,00	45,5952
388,50	45,5697
389,00	45,4968
389,50	45,4421
390,00	45,3926
390,50	45,3391
391,00	45,3013
391,50	45,2961
392,00	45,2988
392,50	45,2961
393,00	45,2858
393,50	45,2495
394,00	45,2530
394,50	45,2280
395,00	45,1798
395,50	45,1535
396,00	45,1009
396,50	45,0933
397,00	45,1247
397,50	45,1417
398,00	45,1638
398,50	45,1178
399,00	45,1139
399,50	45,1716
400,00	45,1862
400,50	45,1983
401,00	45,1989
401,50	45,1513
402,00	45,1318
402,50	45,1337
403,00	45,1325
403,50	45,1541
404,00	45,1063
404,50	45,0928
405,00	45,0866
405,50	45,0702
406,00	45,0693
406,50	45,0485
407,00	45,0195
407,50	45,0478
408,00	45,0131
408,50	45,0072
409,00	44,9644
409,50	44,9409
410,00	44,9260
410,50	44,9311
411,00	44,9008
411,50	44,8702
412,00	44,8225
412,50	44,8091
413,00	44,7857
413,50	44,7943
414,00	44,7826
414,50	44,7652
415,00	44,7076
415,50	44,7147
416,00	44,6865
416,50	44,6843
417,00	44,6552
417,50	44,6364
418,00	44,6234
418,50	44,5152
419,00	44,4024
419,50	44,3140
420,00	44,1816
420,50	44,1003
421,00	43,9718
421,50	43,8925
422,00	43,7819
422,50	43,6588
423,00	43,6457
423,50	43,6330
424,00	43,6196
424,50	43,6376
425,00	43,6449
425,50	43,6484
426,00	43,6173
426,50	43,6129
427,00	43,6249
427,50	43,6332
428,00	43,6302
428,50	43,6325
429,00	43,6184
429,50	43,6195
430,00	43,6066
430,50	43,6228
431,00	43,6438
431,50	43,6517
432,00	43,6721
432,50	43,6876
433,00	43,6789
433,50	43,6475
434,00	43,6343
434,50	43,6477
435,00	43,6389
435,50	43,6385
436,00	43,6311
436,50	43,6152
437,00	43,5924
437,50	43,5962
438,00	43,6076
438,50	43,5712
439,00	43,5746
439,50	43,5704
440,00	43,5433
440,50	43,5364
441,00	43,5051
441,50	43,4973
442,00	43,4878
442,50	43,4883
443,00	43,5239
443,50	43,5112
444,00	43,5054
444,50	43,5042
445,00	43,5016
445,50	43,5133
446,00	43,5220
446,50	43,5368
447,00	43,5328
447,50	43,5422
448,00	43,5546
448,50	43,5558
449,00	43,5536
449,50	43,5620
450,00	43,5774
450,50	43,5768
451,00	43,5719
451,50	43,5717
452,00	43,5796
452,50	43,5886
453,00	43,6049
453,50	43,5996
454,00	43,5994
454,50	43,5788
455,00	43,5698
455,50	43,5561
456,00	43,5463
456,50	43,5088
457,00	43,4827
457,50	43,4806
458,00	43,4824
458,50	43,4762
459,00	43,4600
459,50	43,4669
460,00	43,4574
460,50	43,4459
461,00	43,4519
461,50	43,4392
462,00	43,4205
462,50	43,4063
463,00	43,3814
463,50	43,3797
464,00	43,3664
464,50	43,3713
465,00	43,3896
465,50	43,3729
466,00	43,3656
466,50	43,3454
467,00	43,3414
467,50	43,3195
468,00	43,3024
468,50	43,2902
469,00	43,2704
469,50	43,2669
470,00	43,2665
470,50	43,2686
471,00	43,2779
471,50	43,2708
472,00	43,2648
472,50	43,2588
473,00	43,2524
473,50	43,2399
474,00	43,2043
474,50	43,1825
475,00	43,1910
475,50	43,1785
476,00	43,1744
476,50	43,1730
477,00	43,1745
477,50	43,1680
478,00	43,1726
478,50	43,1726
479,00	43,1510
479,50	43,1108
480,00	43,0966
480,50	43,0853
481,00	43,0834
481,50	43,0798
482,00	43,0725
482,50	43,0611
483,00	43,0512
483,50	43,0748
484,00	43,0900
484,50	43,0998
485,00	43,0967
485,50	43,0950
486,00	43,1045
486,50	43,1217
487,00	43,1158
487,50	43,1243
488,00	43,1051
488,50	43,1242
489,00	43,1017
489,50	43,1022
490,00	43,0928
490,50	43,0769
491,00	43,0644
491,50	43,0644
492,00	43,0611
492,50	43,0743
493,00	43,0397
493,50	43,0457
494,00	43,0548
494,50	43,0686
495,00	43,0885
495,50	43,1003
496,00	43,0940
496,50	43,1043
497,00	43,1187
497,50	43,1259
498,00	43,1402
498,50	43,1223
499,00	43,1310
499,50	43,1197
500,00	43,1108
500,50	43,1155
501,00	43,0982
501,50	43,0971
502,00	43,0998
502,50	43,0786
503,00	43,0914
503,50	43,0822
504,00	43,0966
504,50	43,0679
505,00	43,0661
505,50	43,0519
506,00	43,0476
506,50	43,0601
507,00	43,0565
507,50	43,0531
508,00	43,0391
508,50	43,0165
509,00	43,0421
509,50	43,0373
510,00	43,0329
510,50	43,0119
511,00	42,9810
511,50	42,9842
512,00	42,9698
512,50	42,9753
513,00	42,9396
513,50	42,9314
514,00	42,9274
514,50	42,9469
515,00	42,9646
515,50	42,9510
516,00	42,9512
516,50	42,9611
517,00	42,9451
517,50	42,9584
518,00	42,9471
518,50	42,9433
519,00	42,9480
519,50	42,9314
520,00	42,9592
520,50	42,9497
521,00	42,9364
521,50	42,9373
522,00	42,9497
522,50	42,9572
523,00	42,9495
523,50	42,9116
524,00	42,9101
524,50	42,8936
525,00	42,9086
525,50	42,9022
526,00	42,8918
526,50	42,8703
527,00	42,8514
527,50	42,8316
528,00	42,8349
528,50	42,7983
529,00	42,7428
529,50	42,6687
530,00	42,6069
530,50	42,5757
531,00	42,5299
531,50	42,4961
532,00	42,4762
532,50	42,4484
533,00	42,4246
533,50	42,4701
534,00	42,4842
534,50	42,5072
535,00	42,5105
535,50	42,5298
536,00	42,5368
536,50	42,5474
537,00	42,5617
537,50	42,5781
538,00	42,5542
538,50	42,5526
539,00	42,5580
539,50	42,5466
540,00	42,5492
540,50	42,5378
541,00	42,5189
541,50	42,5129
542,00	42,5024
542,50	42,4967
543,00	42,4975
543,50	42,5023
544,00	42,5149
544,50	42,5061
545,00	42,5051
545,50	42,5083
546,00	42,4854
546,50	42,4852
547,00	42,4820
547,50	42,4682
548,00	42,4501
548,50	42,4541
549,00	42,4389
549,50	42,4323
550,00	42,4325
550,50	42,4470
551,00	42,4609
551,50	42,4330
552,00	42,4442
552,50	42,4485
553,00	42,4248
553,50	42,4383
554,00	42,4403
554,50	42,4360
555,00	42,4275
555,50	42,4157
556,00	42,4132
556,50	42,3990
557,00	42,3604
557,50	42,3413
558,00	42,3134
558,50	42,2930
559,00	42,2963
559,50	42,2817
560,00	42,2672
560,50	42,2631
561,00	42,2719
561,50	42,2848
562,00	42,3026
562,50	42,3011
563,00	42,2972
563,50	42,2737
564,00	42,2644
564,50	42,2422
565,00	42,2454
565,50	42,2191
566,00	42,2018
566,50	42,1722
567,00	42,1927
567,50	42,1662
568,00	42,1697
568,50	42,1635
569,00	42,1702
569,50	42,1670
570,00	42,1783
570,50	42,1935
571,00	42,1903
571,50	42,1657
572,00	42,1871
572,50	42,1623
573,00	42,1668
573,50	42,1730
574,00	42,1728
574,50	42,1789
575,00	42,1813
575,50	42,1890
576,00	42,1985
576,50	42,2108
577,00	42,2451
577,50	42,2595
578,00	42,2567
578,50	42,2503
579,00	42,2379
579,50	42,2295
580,00	42,2291
580,50	42,2227
581,00	42,2047
581,50	42,2109
582,00	42,2125
582,50	42,2327
583,00	42,2233
583,50	42,2399
584,00	42,2709
584,50	42,2804
585,00	42,2985
585,50	42,3208
586,00	42,3129
586,50	42,3106
587,00	42,3139
587,50	42,3517
588,00	42,3504
588,50	42,3471
589,00	42,3582
589,50	42,3496
590,00	42,3534
590,50	42,3823
591,00	42,3867
591,50	42,3795
592,00	42,3678
592,50	42,3720
593,00	42,3787
593,50	42,3766
594,00	42,3618
594,50	42,3620
595,00	42,3421
595,50	42,3517
596,00	42,3486
596,50	42,3609
597,00	42,3600
597,50	42,3487
598,00	42,3465
598,50	42,3613
599,00	42,3518
599,50	42,3418
600,00	42,3269
