"pen_argset_A_front_corner3 - Storage 110423"
"Wavelength nm."	"R%"
185,00	-850,9092
185,50	-649,4928
186,00	-451,0855
186,50	-253,4963
187,00	-50,5341
187,50	147,5571
188,00	141,8665
188,50	131,2091
189,00	128,9305
189,50	117,2359
190,00	114,5408
190,50	115,4693
191,00	115,6425
191,50	111,5769
192,00	113,4455
192,50	111,7234
193,00	106,9564
193,50	103,0564
194,00	101,0159
194,50	100,8218
195,00	98,6765
195,50	99,5462
196,00	98,8118
196,50	96,6858
197,00	96,4222
197,50	95,8266
198,00	95,2762
198,50	95,5006
199,00	94,8606
199,50	94,1674
200,00	92,6285
200,50	91,4295
201,00	90,9137
201,50	90,3711
202,00	89,0597
202,50	88,0980
203,00	87,2300
203,50	85,6155
204,00	85,6155
204,50	85,0297
205,00	84,4354
205,50	82,8493
206,00	81,6791
206,50	81,7744
207,00	81,3200
207,50	80,7228
208,00	80,0677
208,50	79,3308
209,00	78,1431
209,50	77,2917
210,00	77,3333
210,50	76,8680
211,00	75,4364
211,50	74,5574
212,00	73,4551
212,50	72,8612
213,00	71,8275
213,50	71,3047
214,00	70,4428
214,50	69,2017
215,00	68,5350
215,50	67,9737
216,00	67,3551
216,50	67,0450
217,00	66,1276
217,50	65,4668
218,00	65,1215
218,50	64,4275
219,00	63,8272
219,50	63,1326
220,00	62,5709
220,50	62,0058
221,00	61,1658
221,50	60,8008
222,00	60,5559
222,50	59,8030
223,00	59,5935
223,50	59,1610
224,00	58,5714
224,50	58,2429
225,00	57,6231
225,50	57,1842
226,00	56,7610
226,50	56,2298
227,00	55,8220
227,50	55,3042
228,00	55,0672
228,50	54,7526
229,00	54,3804
229,50	54,1034
230,00	53,9454
230,50	53,7562
231,00	53,5582
231,50	53,2673
232,00	52,8946
232,50	52,5909
233,00	52,3969
233,50	52,1001
234,00	51,9205
234,50	51,5702
235,00	51,3107
235,50	51,0455
236,00	50,8834
236,50	50,9049
237,00	50,7282
237,50	50,6413
238,00	50,5318
238,50	50,4699
239,00	50,3908
239,50	50,3301
240,00	50,2393
240,50	50,2211
241,00	50,0422
241,50	50,0685
242,00	50,0018
242,50	50,0234
243,00	49,9678
243,50	49,9376
244,00	49,9212
244,50	49,8660
245,00	49,7730
245,50	49,7265
246,00	49,6243
246,50	49,5336
247,00	49,5050
247,50	49,4630
248,00	49,5899
248,50	49,4824
249,00	49,5164
249,50	49,5595
250,00	49,6536
250,50	49,7244
251,00	49,8182
251,50	49,9046
252,00	49,8734
252,50	49,8992
253,00	50,1377
253,50	50,2331
254,00	50,3083
254,50	50,4106
255,00	50,4140
255,50	50,4956
256,00	50,5169
256,50	50,6174
257,00	50,5588
257,50	50,5081
258,00	50,5853
258,50	50,5756
259,00	50,5928
259,50	50,6778
260,00	50,7178
260,50	50,7019
261,00	50,7452
261,50	50,8447
262,00	50,8951
262,50	50,8843
263,00	51,0112
263,50	51,0526
264,00	51,0002
264,50	50,9757
265,00	51,0258
265,50	51,0762
266,00	51,0818
266,50	50,9925
267,00	50,9918
267,50	50,8743
268,00	50,8355
268,50	50,8525
269,00	50,7943
269,50	50,8059
270,00	50,7046
270,50	50,6540
271,00	50,6391
271,50	50,5677
272,00	50,5558
272,50	50,5105
273,00	50,4954
273,50	50,5701
274,00	50,5298
274,50	50,4986
275,00	50,4692
275,50	50,4704
276,00	50,5669
276,50	50,5666
277,00	50,5203
277,50	50,4905
278,00	50,4465
278,50	50,4377
279,00	50,4359
279,50	50,4267
280,00	50,4068
280,50	50,2612
281,00	50,1940
281,50	50,1875
282,00	50,1427
282,50	50,0031
283,00	49,8623
283,50	49,7626
284,00	49,8041
284,50	49,7210
285,00	49,6619
285,50	49,6664
286,00	49,6692
286,50	49,6546
287,00	49,6635
287,50	49,6479
288,00	49,6920
288,50	49,5603
289,00	49,5296
289,50	49,5719
290,00	49,4459
290,50	49,2913
291,00	49,2567
291,50	49,2107
292,00	49,2375
292,50	49,1480
293,00	49,0797
293,50	49,1328
294,00	49,1024
294,50	49,1300
295,00	49,1864
295,50	49,1737
296,00	49,1258
296,50	49,1078
297,00	49,0979
297,50	49,1010
298,00	49,0293
298,50	48,9091
299,00	48,9585
299,50	48,9120
300,00	49,0100
300,50	49,0664
301,00	49,0006
301,50	49,0533
302,00	49,0020
302,50	49,0358
303,00	49,1054
303,50	49,0281
304,00	48,9888
304,50	48,8153
305,00	48,8583
305,50	48,8171
306,00	48,7546
306,50	48,8015
307,00	48,7700
307,50	48,7525
308,00	48,7776
308,50	48,9310
309,00	49,1545
309,50	49,2468
310,00	49,4445
310,50	49,5843
311,00	49,7541
311,50	49,8380
312,00	49,9289
312,50	50,0588
313,00	50,0276
313,50	50,0223
314,00	49,9958
314,50	49,9090
315,00	49,8757
315,50	49,7886
316,00	49,7961
316,50	49,8420
317,00	49,8309
317,50	49,9513
318,00	49,9146
318,50	49,9220
319,00	50,0269
319,50	50,0270
320,00	49,9964
320,50	50,0122
321,00	50,0026
321,50	49,9326
322,00	49,8684
322,50	49,9107
323,00	49,8398
323,50	49,8132
324,00	49,8130
324,50	49,9077
325,00	49,9070
325,50	49,8863
326,00	49,9286
326,50	49,8855
327,00	49,8176
327,50	49,7977
328,00	49,7512
328,50	49,8285
329,00	49,8057
329,50	49,7943
330,00	49,7723
330,50	49,6954
331,00	49,6876
331,50	49,6406
332,00	49,6358
332,50	49,6514
333,00	49,5838
333,50	49,4711
334,00	49,4772
334,50	49,4529
335,00	49,4644
335,50	49,4420
336,00	49,4328
336,50	49,4204
337,00	49,3767
337,50	49,2773
338,00	49,2678
338,50	49,1859
339,00	49,2264
339,50	49,2027
340,00	49,1929
340,50	49,2129
341,00	49,1989
341,50	49,1765
342,00	49,2197
342,50	49,2240
343,00	49,2167
343,50	49,1347
344,00	49,0857
344,50	49,0305
345,00	48,9843
345,50	49,0388
346,00	49,0307
346,50	49,0063
347,00	49,0344
347,50	49,0229
348,00	49,0258
348,50	48,9929
349,00	48,9837
349,50	48,9126
350,00	48,8109
350,50	48,7809
351,00	48,7450
351,50	48,6854
352,00	48,6192
352,50	48,5688
353,00	48,5826
353,50	48,6223
354,00	48,6164
354,50	48,6322
355,00	48,6485
355,50	48,5766
356,00	48,5253
356,50	48,5127
357,00	48,5033
357,50	48,4905
358,00	48,3059
358,50	48,4222
359,00	48,5128
359,50	48,6314
360,00	48,7921
360,50	48,9618
361,00	49,0807
361,50	49,2287
362,00	49,3721
362,50	49,6488
363,00	49,6823
363,50	49,6010
364,00	49,5097
364,50	49,4955
365,00	49,4947
365,50	49,5254
366,00	49,4759
366,50	49,4233
367,00	49,4408
367,50	49,4230
368,00	49,5044
368,50	49,5110
369,00	49,4817
369,50	49,4681
370,00	49,3832
370,50	49,3846
371,00	49,3658
371,50	49,2777
372,00	49,2669
372,50	49,1881
373,00	49,1870
373,50	49,2125
374,00	49,1612
374,50	49,1584
375,00	49,0849
375,50	49,1177
376,00	49,0425
376,50	48,9546
377,00	48,9188
377,50	48,8077
378,00	48,6347
378,50	48,4763
379,00	48,2731
379,50	48,0809
380,00	47,8730
380,50	47,7130
381,00	47,5810
381,50	47,3590
382,00	47,2158
382,50	47,0560
383,00	46,9055
383,50	46,8485
384,00	46,7429
384,50	46,6004
385,00	46,4825
385,50	46,3355
386,00	46,2785
386,50	46,1944
387,00	46,1456
387,50	46,0775
388,00	45,9788
388,50	45,9802
389,00	45,9519
389,50	45,9262
390,00	45,8761
390,50	45,8274
391,00	45,7984
391,50	45,7621
392,00	45,7498
392,50	45,7391
393,00	45,6814
393,50	45,6639
394,00	45,6481
394,50	45,6322
395,00	45,6189
395,50	45,6048
396,00	45,5605
396,50	45,5612
397,00	45,5656
397,50	45,5931
398,00	45,5974
398,50	45,5644
399,00	45,5624
399,50	45,5762
400,00	45,5743
400,50	45,6075
401,00	45,6359
401,50	45,6213
402,00	45,6046
402,50	45,5613
403,00	45,5580
403,50	45,5545
404,00	45,5272
404,50	45,5223
405,00	45,5017
405,50	45,4661
406,00	45,4570
406,50	45,4370
407,00	45,4431
407,50	45,4613
408,00	45,4423
408,50	45,4442
409,00	45,3615
409,50	45,3519
410,00	45,3149
410,50	45,3004
411,00	45,2859
411,50	45,2643
412,00	45,2283
412,50	45,2175
413,00	45,1837
413,50	45,2100
414,00	45,1789
414,50	45,1731
415,00	45,1458
415,50	45,1447
416,00	45,1158
416,50	45,0855
417,00	45,0642
417,50	45,0445
418,00	44,9952
418,50	44,9180
419,00	44,8059
419,50	44,7189
420,00	44,6009
420,50	44,5055
421,00	44,4466
421,50	44,3081
422,00	44,2136
422,50	44,1551
423,00	44,1121
423,50	44,1266
424,00	44,1043
424,50	44,0734
425,00	44,0627
425,50	44,0107
426,00	44,0328
426,50	44,0157
427,00	44,0120
427,50	44,0229
428,00	43,9865
428,50	44,0002
429,00	44,0178
429,50	44,0175
430,00	44,0437
430,50	44,0549
431,00	44,0599
431,50	44,0512
432,00	44,0660
432,50	44,0693
433,00	44,0521
433,50	44,0388
434,00	44,0520
434,50	44,0351
435,00	43,9997
435,50	44,0239
436,00	44,0177
436,50	43,9993
437,00	44,0219
437,50	44,0140
438,00	44,0103
438,50	43,9831
439,00	43,9879
439,50	44,0233
440,00	43,9732
440,50	43,9774
441,00	43,9754
441,50	43,9505
442,00	43,9604
442,50	43,9682
443,00	43,9917
443,50	43,9770
444,00	43,9445
444,50	43,9410
445,00	43,9374
445,50	43,9496
446,00	43,9381
446,50	43,9313
447,00	43,9370
447,50	43,9229
448,00	43,9229
448,50	43,9254
449,00	43,9362
449,50	43,9402
450,00	43,9498
450,50	43,9625
451,00	43,9621
451,50	43,9671
452,00	43,9790
452,50	43,9899
453,00	44,0025
453,50	43,9836
454,00	43,9671
454,50	43,9441
455,00	43,9289
455,50	43,9295
456,00	43,9012
456,50	43,8786
457,00	43,8635
457,50	43,8443
458,00	43,8570
458,50	43,8716
459,00	43,8445
459,50	43,8608
460,00	43,8557
460,50	43,8437
461,00	43,8329
461,50	43,8281
462,00	43,8272
462,50	43,8080
463,00	43,7774
463,50	43,7634
464,00	43,7411
464,50	43,7145
465,00	43,7133
465,50	43,7104
466,00	43,6833
466,50	43,6623
467,00	43,6413
467,50	43,6328
468,00	43,6289
468,50	43,6110
469,00	43,5990
469,50	43,5930
470,00	43,5723
470,50	43,5875
471,00	43,5878
471,50	43,5887
472,00	43,5587
472,50	43,5754
473,00	43,5648
473,50	43,5473
474,00	43,5227
474,50	43,5095
475,00	43,4909
475,50	43,4716
476,00	43,4886
476,50	43,4863
477,00	43,4553
477,50	43,4503
478,00	43,4689
478,50	43,4660
479,00	43,4591
479,50	43,4560
480,00	43,4535
480,50	43,4426
481,00	43,4562
481,50	43,4515
482,00	43,4414
482,50	43,4160
483,00	43,4149
483,50	43,4172
484,00	43,4215
484,50	43,4133
485,00	43,3998
485,50	43,3844
486,00	43,3821
486,50	43,3942
487,00	43,4029
487,50	43,4072
488,00	43,3982
488,50	43,4042
489,00	43,4114
489,50	43,4006
490,00	43,4024
490,50	43,4028
491,00	43,3849
491,50	43,3791
492,00	43,3798
492,50	43,3811
493,00	43,3516
493,50	43,3316
494,00	43,3672
494,50	43,3598
495,00	43,3669
495,50	43,3787
496,00	43,3692
496,50	43,3581
497,00	43,3946
497,50	43,4079
498,00	43,4281
498,50	43,3822
499,00	43,4076
499,50	43,4062
500,00	43,4062
500,50	43,4142
501,00	43,4198
501,50	43,3862
502,00	43,3728
502,50	43,3692
503,00	43,3984
503,50	43,3814
504,00	43,4074
504,50	43,4035
505,00	43,3944
505,50	43,3778
506,00	43,3784
506,50	43,3823
507,00	43,3651
507,50	43,3370
508,00	43,3375
508,50	43,3047
509,00	43,3033
509,50	43,2962
510,00	43,2795
510,50	43,2779
511,00	43,2785
511,50	43,2912
512,00	43,2987
512,50	43,2724
513,00	43,2773
513,50	43,2722
514,00	43,2927
514,50	43,3215
515,00	43,3211
515,50	43,3011
516,00	43,2788
516,50	43,2867
517,00	43,2950
517,50	43,2655
518,00	43,2587
518,50	43,2403
519,00	43,2158
519,50	43,2051
520,00	43,2154
520,50	43,2361
521,00	43,2252
521,50	43,2280
522,00	43,2570
522,50	43,2553
523,00	43,2472
523,50	43,2549
524,00	43,2817
524,50	43,2526
525,00	43,2484
525,50	43,2291
526,00	43,2055
526,50	43,1578
527,00	43,1410
527,50	43,1226
528,00	43,1027
528,50	43,0372
529,00	43,0264
529,50	42,9794
530,00	42,9228
530,50	42,8943
531,00	42,8721
531,50	42,8503
532,00	42,8215
532,50	42,7912
533,00	42,7870
533,50	42,7726
534,00	42,7677
534,50	42,7940
535,00	42,7884
535,50	42,7904
536,00	42,7884
536,50	42,7732
537,00	42,7813
537,50	42,7792
538,00	42,7727
538,50	42,7666
539,00	42,7614
539,50	42,7771
540,00	42,7787
540,50	42,7621
541,00	42,7689
541,50	42,7634
542,00	42,7623
542,50	42,7849
543,00	42,7824
543,50	42,7818
544,00	42,7649
544,50	42,7506
545,00	42,7399
545,50	42,7510
546,00	42,7535
546,50	42,7520
547,00	42,7452
547,50	42,7282
548,00	42,7195
548,50	42,7331
549,00	42,7287
549,50	42,7423
550,00	42,7370
550,50	42,7168
551,00	42,6999
551,50	42,6654
552,00	42,6873
552,50	42,7013
553,00	42,6838
553,50	42,6910
554,00	42,6869
554,50	42,6866
555,00	42,6952
555,50	42,6897
556,00	42,7036
556,50	42,6949
557,00	42,6517
557,50	42,6254
558,00	42,6174
558,50	42,5940
559,00	42,5934
559,50	42,5862
560,00	42,5787
560,50	42,5697
561,00	42,5546
561,50	42,5533
562,00	42,5527
562,50	42,5556
563,00	42,5626
563,50	42,5294
564,00	42,5201
564,50	42,5017
565,00	42,4911
565,50	42,4801
566,00	42,4709
566,50	42,4619
567,00	42,4559
567,50	42,4520
568,00	42,4535
568,50	42,4039
569,00	42,4203
569,50	42,4122
570,00	42,4091
570,50	42,4197
571,00	42,4380
571,50	42,4285
572,00	42,4232
572,50	42,4103
573,00	42,4364
573,50	42,4426
574,00	42,4422
574,50	42,4442
575,00	42,4433
575,50	42,4169
576,00	42,4096
576,50	42,4096
577,00	42,4307
577,50	42,4535
578,00	42,4473
578,50	42,4395
579,00	42,4429
579,50	42,4277
580,00	42,4295
580,50	42,4235
581,00	42,4161
581,50	42,4291
582,00	42,4284
582,50	42,4203
583,00	42,4160
583,50	42,4355
584,00	42,4874
584,50	42,4978
585,00	42,5220
585,50	42,5270
586,00	42,5236
586,50	42,5095
587,00	42,5354
587,50	42,5748
588,00	42,5413
588,50	42,5229
589,00	42,5212
589,50	42,5159
590,00	42,5258
590,50	42,5434
591,00	42,5628
591,50	42,5613
592,00	42,5522
592,50	42,5807
593,00	42,5866
593,50	42,5906
594,00	42,5949
594,50	42,6037
595,00	42,5891
595,50	42,5832
596,00	42,5665
596,50	42,5673
597,00	42,5546
597,50	42,5414
598,00	42,5427
598,50	42,5252
599,00	42,5024
599,50	42,4846
600,00	42,4761
