"pen_argset_A_front - Storage 104806"
"Wavelength nm."	"R%"
185,00	370,6142
185,50	315,5875
186,00	263,8387
186,50	208,3001
187,00	158,1824
187,50	107,1464
188,00	110,6400
188,50	114,1779
189,00	110,3795
189,50	109,9233
190,00	113,3084
190,50	113,2357
191,00	116,4900
191,50	113,8685
192,00	113,3630
192,50	110,0660
193,00	103,9014
193,50	103,8899
194,00	100,9533
194,50	100,1796
195,00	97,9034
195,50	97,2986
196,00	96,4041
196,50	93,9619
197,00	93,3970
197,50	93,9520
198,00	93,1309
198,50	93,3288
199,00	92,2382
199,50	91,1600
200,00	90,2494
200,50	89,5454
201,00	88,8925
201,50	89,4248
202,00	88,7499
202,50	87,8359
203,00	87,2001
203,50	85,9556
204,00	86,2071
204,50	85,1244
205,00	84,9320
205,50	83,9531
206,00	82,4718
206,50	82,3221
207,00	82,1295
207,50	81,5341
208,00	81,0339
208,50	80,0215
209,00	79,1071
209,50	77,9988
210,00	78,0087
210,50	77,2958
211,00	75,5014
211,50	74,3075
212,00	73,7283
212,50	72,7851
213,00	72,1597
213,50	71,4468
214,00	70,4897
214,50	69,3133
215,00	68,5698
215,50	67,9883
216,00	67,1572
216,50	66,5167
217,00	65,4177
217,50	64,8079
218,00	63,9800
218,50	63,2130
219,00	62,6463
219,50	62,1023
220,00	61,5605
220,50	61,4381
221,00	60,7175
221,50	60,3366
222,00	59,9570
222,50	59,6953
223,00	59,4297
223,50	59,0498
224,00	58,3149
224,50	57,6965
225,00	57,1401
225,50	56,6607
226,00	56,3115
226,50	55,8907
227,00	55,3538
227,50	54,7735
228,00	54,3510
228,50	54,1708
229,00	53,9793
229,50	53,5685
230,00	53,3436
230,50	53,1292
231,00	52,8319
231,50	52,5645
232,00	52,4007
232,50	52,0193
233,00	51,8257
233,50	51,5261
234,00	51,4046
234,50	51,1792
235,00	50,8879
235,50	50,6969
236,00	50,6287
236,50	50,4543
237,00	50,4455
237,50	50,3185
238,00	50,2173
238,50	50,0308
239,00	49,9114
239,50	49,8768
240,00	49,6825
240,50	49,5541
241,00	49,5049
241,50	49,4387
242,00	49,3507
242,50	49,3898
243,00	49,4065
243,50	49,3520
244,00	49,3167
244,50	49,3134
245,00	49,2303
245,50	49,1766
246,00	49,1680
246,50	49,1437
247,00	49,1365
247,50	49,0420
248,00	49,0579
248,50	49,0562
249,00	49,0086
249,50	49,0038
250,00	49,0535
250,50	49,0263
251,00	49,0363
251,50	49,0319
252,00	49,0778
252,50	49,0580
253,00	49,0799
253,50	49,2788
254,00	49,4167
254,50	49,5366
255,00	49,6010
255,50	49,6780
256,00	49,7492
256,50	49,8257
257,00	49,9408
257,50	50,0558
258,00	50,0566
258,50	50,0493
259,00	50,0824
259,50	50,1744
260,00	50,1406
260,50	50,0760
261,00	50,1172
261,50	50,1728
262,00	50,1965
262,50	50,1944
263,00	50,3460
263,50	50,3341
264,00	50,3343
264,50	50,3929
265,00	50,5276
265,50	50,5749
266,00	50,5935
266,50	50,5547
267,00	50,5550
267,50	50,4400
268,00	50,4460
268,50	50,4276
269,00	50,3741
269,50	50,3344
270,00	50,3172
270,50	50,2666
271,00	50,2682
271,50	50,2780
272,00	50,2066
272,50	50,1126
273,00	50,0492
273,50	50,1115
274,00	50,1262
274,50	50,1339
275,00	50,0409
275,50	49,9949
276,00	49,9574
276,50	50,0251
277,00	49,9750
277,50	49,9762
278,00	49,8936
278,50	49,8464
279,00	49,7266
279,50	49,7752
280,00	49,6957
280,50	49,6401
281,00	49,5694
281,50	49,5876
282,00	49,5130
282,50	49,4550
283,00	49,3701
283,50	49,3324
284,00	49,3308
284,50	49,2589
285,00	49,2428
285,50	49,2491
286,00	49,2097
286,50	49,1243
287,00	49,0917
287,50	49,0652
288,00	49,1175
288,50	49,0501
289,00	49,0385
289,50	49,0673
290,00	48,9983
290,50	48,9726
291,00	49,0173
291,50	48,9788
292,00	48,9742
292,50	48,8552
293,00	48,8646
293,50	48,9248
294,00	48,8247
294,50	48,8058
295,00	48,7174
295,50	48,6512
296,00	48,6074
296,50	48,5845
297,00	48,5244
297,50	48,4830
298,00	48,4479
298,50	48,4118
299,00	48,3991
299,50	48,4033
300,00	48,4460
300,50	48,4832
301,00	48,4321
301,50	48,5087
302,00	48,4546
302,50	48,4063
303,00	48,4430
303,50	48,3836
304,00	48,3263
304,50	48,3107
305,00	48,4455
305,50	48,4173
306,00	48,3802
306,50	48,4322
307,00	48,4242
307,50	48,3725
308,00	48,4372
308,50	48,7215
309,00	48,8918
309,50	48,9988
310,00	49,1583
310,50	49,2434
311,00	49,3419
311,50	49,4039
312,00	49,5823
312,50	49,6636
313,00	49,5100
313,50	49,5500
314,00	49,4284
314,50	49,4449
315,00	49,4487
315,50	49,4094
316,00	49,4606
316,50	49,4095
317,00	49,4478
317,50	49,6115
318,00	49,5492
318,50	49,6566
319,00	49,6992
319,50	49,7287
320,00	49,6888
320,50	49,6501
321,00	49,6267
321,50	49,6176
322,00	49,4956
322,50	49,4596
323,00	49,4061
323,50	49,3732
324,00	49,3296
324,50	49,3737
325,00	49,4819
325,50	49,5215
326,00	49,4689
326,50	49,4676
327,00	49,4978
327,50	49,4038
328,00	49,3640
328,50	49,4756
329,00	49,4442
329,50	49,3735
330,00	49,3595
330,50	49,2845
331,00	49,3326
331,50	49,3231
332,00	49,3350
332,50	49,3741
333,00	49,3537
333,50	49,3018
334,00	49,3504
334,50	49,2898
335,00	49,3674
335,50	49,2938
336,00	49,2507
336,50	49,1601
337,00	49,0271
337,50	48,9555
338,00	48,9759
338,50	48,8997
339,00	48,8914
339,50	48,8374
340,00	48,8224
340,50	48,7915
341,00	48,8525
341,50	48,8881
342,00	48,8563
342,50	48,8378
343,00	48,7865
343,50	48,8067
344,00	48,8080
344,50	48,8026
345,00	48,8296
345,50	48,8531
346,00	48,8206
346,50	48,7499
347,00	48,7410
347,50	48,7389
348,00	48,6447
348,50	48,5994
349,00	48,5291
349,50	48,4292
350,00	48,3589
350,50	48,2798
351,00	48,3045
351,50	48,2348
352,00	48,1322
352,50	48,1431
353,00	48,1656
353,50	48,2026
354,00	48,1895
354,50	48,1464
355,00	48,1189
355,50	48,0492
356,00	48,0079
356,50	48,0650
357,00	48,0513
357,50	47,9821
358,00	47,8688
358,50	48,0079
359,00	48,1333
359,50	48,3604
360,00	48,5546
360,50	48,7367
361,00	48,8546
361,50	48,9963
362,00	49,1614
362,50	49,3771
363,00	49,3733
363,50	49,3361
364,00	49,2630
364,50	49,2199
365,00	49,2264
365,50	49,1988
366,00	49,1698
366,50	49,0958
367,00	49,0868
367,50	49,0862
368,00	49,1392
368,50	49,1370
369,00	49,0950
369,50	49,1026
370,00	49,0603
370,50	49,1105
371,00	49,1112
371,50	49,0873
372,00	49,0590
372,50	49,0067
373,00	48,9913
373,50	48,9848
374,00	48,9072
374,50	48,9172
375,00	48,7832
375,50	48,7869
376,00	48,7235
376,50	48,6364
377,00	48,5656
377,50	48,4262
378,00	48,2996
378,50	48,1501
379,00	47,9660
379,50	47,8033
380,00	47,6256
380,50	47,4399
381,00	47,3217
381,50	47,1245
382,00	46,9799
382,50	46,8293
383,00	46,6685
383,50	46,5220
384,00	46,3819
384,50	46,2451
385,00	46,1479
385,50	46,0060
386,00	45,9335
386,50	45,8821
387,00	45,8046
387,50	45,7802
388,00	45,7608
388,50	45,7663
389,00	45,7202
389,50	45,6861
390,00	45,6239
390,50	45,6144
391,00	45,5640
391,50	45,5342
392,00	45,4821
392,50	45,4604
393,00	45,4189
393,50	45,3960
394,00	45,3639
394,50	45,3598
395,00	45,3203
395,50	45,3254
396,00	45,3172
396,50	45,3559
397,00	45,3704
397,50	45,4113
398,00	45,3982
398,50	45,3506
399,00	45,3611
399,50	45,3426
400,00	45,3176
400,50	45,3363
401,00	45,3025
401,50	45,2727
402,00	45,2384
402,50	45,2375
403,00	45,2628
403,50	45,2520
404,00	45,2470
404,50	45,2545
405,00	45,2434
405,50	45,2205
406,00	45,2097
406,50	45,1901
407,00	45,1868
407,50	45,1759
408,00	45,1632
408,50	45,1602
409,00	45,1167
409,50	45,0796
410,00	45,0733
410,50	45,0691
411,00	45,0158
411,50	44,9761
412,00	44,9530
412,50	44,9162
413,00	44,9026
413,50	44,9138
414,00	44,8864
414,50	44,8710
415,00	44,8553
415,50	44,8843
416,00	44,8832
416,50	44,8572
417,00	44,8317
417,50	44,8130
418,00	44,7705
418,50	44,6661
419,00	44,5656
419,50	44,4380
420,00	44,3106
420,50	44,1975
421,00	44,0962
421,50	44,0107
422,00	43,8879
422,50	43,8139
423,00	43,8164
423,50	43,8087
424,00	43,8160
424,50	43,8016
425,00	43,8099
425,50	43,8163
426,00	43,7926
426,50	43,7775
427,00	43,7749
427,50	43,7785
428,00	43,7604
428,50	43,7565
429,00	43,7754
429,50	43,7653
430,00	43,7686
430,50	43,7947
431,00	43,8381
431,50	43,8569
432,00	43,8799
432,50	43,8865
433,00	43,8928
433,50	43,8836
434,00	43,8949
434,50	43,8697
435,00	43,8467
435,50	43,8299
436,00	43,7904
436,50	43,7657
437,00	43,7845
437,50	43,7676
438,00	43,7646
438,50	43,7507
439,00	43,7670
439,50	43,7801
440,00	43,7518
440,50	43,7815
441,00	43,7715
441,50	43,7384
442,00	43,7404
442,50	43,7310
443,00	43,7377
443,50	43,7254
444,00	43,7060
444,50	43,7194
445,00	43,6919
445,50	43,7026
446,00	43,7059
446,50	43,7097
447,00	43,7267
447,50	43,7266
448,00	43,7335
448,50	43,7429
449,00	43,7322
449,50	43,7477
450,00	43,7506
450,50	43,7771
451,00	43,7748
451,50	43,7903
452,00	43,7927
452,50	43,7831
453,00	43,7832
453,50	43,7751
454,00	43,7465
454,50	43,7205
455,00	43,6810
455,50	43,6691
456,00	43,6196
456,50	43,5961
457,00	43,5870
457,50	43,5781
458,00	43,5846
458,50	43,6077
459,00	43,6131
459,50	43,6227
460,00	43,6198
460,50	43,6167
461,00	43,6018
461,50	43,6021
462,00	43,5995
462,50	43,5784
463,00	43,5409
463,50	43,5124
464,00	43,4897
464,50	43,4581
465,00	43,4592
465,50	43,4725
466,00	43,4461
466,50	43,4246
467,00	43,4224
467,50	43,4197
468,00	43,4066
468,50	43,4046
469,00	43,4075
469,50	43,3926
470,00	43,3586
470,50	43,3513
471,00	43,3524
471,50	43,3385
472,00	43,3249
472,50	43,3260
473,00	43,3164
473,50	43,3011
474,00	43,2834
474,50	43,2818
475,00	43,2808
475,50	43,2694
476,00	43,2698
476,50	43,2510
477,00	43,2437
477,50	43,2482
478,00	43,2353
478,50	43,2331
479,00	43,2248
479,50	43,1977
480,00	43,1830
480,50	43,1720
481,00	43,1919
481,50	43,1767
482,00	43,1592
482,50	43,1639
483,00	43,1666
483,50	43,1648
484,00	43,2124
484,50	43,2210
485,00	43,2174
485,50	43,1918
486,00	43,2081
486,50	43,2241
487,00	43,2047
487,50	43,2030
488,00	43,1994
488,50	43,1659
489,00	43,1466
489,50	43,1505
490,00	43,1522
490,50	43,1402
491,00	43,1170
491,50	43,1248
492,00	43,1194
492,50	43,1227
493,00	43,1038
493,50	43,0990
494,00	43,1095
494,50	43,1122
495,00	43,1235
495,50	43,1296
496,00	43,1252
496,50	43,1289
497,00	43,1452
497,50	43,1685
498,00	43,1924
498,50	43,1785
499,00	43,1923
499,50	43,1872
500,00	43,1926
500,50	43,1963
501,00	43,1881
501,50	43,1619
502,00	43,1518
502,50	43,1291
503,00	43,1215
503,50	43,1059
504,00	43,1083
504,50	43,0888
505,00	43,0992
505,50	43,0951
506,00	43,0945
506,50	43,0939
507,00	43,0970
507,50	43,0832
508,00	43,0785
508,50	43,0617
509,00	43,0565
509,50	43,0336
510,00	43,0142
510,50	43,0177
511,00	42,9977
511,50	42,9630
512,00	42,9726
512,50	42,9748
513,00	42,9511
513,50	42,9618
514,00	42,9580
514,50	42,9724
515,00	42,9697
515,50	42,9661
516,00	42,9895
516,50	42,9785
517,00	42,9614
517,50	42,9805
518,00	42,9674
518,50	42,9595
519,00	42,9538
519,50	42,9564
520,00	42,9693
520,50	42,9661
521,00	42,9885
521,50	42,9963
522,00	43,0018
522,50	43,0186
523,00	43,0105
523,50	42,9942
524,00	42,9929
524,50	42,9886
525,00	42,9928
525,50	42,9555
526,00	42,9395
526,50	42,9083
527,00	42,8854
527,50	42,8992
528,00	42,9120
528,50	42,8470
529,00	42,7975
529,50	42,7407
530,00	42,6847
530,50	42,6497
531,00	42,6236
531,50	42,5964
532,00	42,5366
532,50	42,4871
533,00	42,4911
533,50	42,4981
534,00	42,5059
534,50	42,5235
535,00	42,5183
535,50	42,5078
536,00	42,5018
536,50	42,5073
537,00	42,5313
537,50	42,5351
538,00	42,5447
538,50	42,5353
539,00	42,5263
539,50	42,5390
540,00	42,5399
540,50	42,5127
541,00	42,5128
541,50	42,4892
542,00	42,4805
542,50	42,4617
543,00	42,4532
543,50	42,4901
544,00	42,4868
544,50	42,4840
545,00	42,4976
545,50	42,5120
546,00	42,5078
546,50	42,5182
547,00	42,5176
547,50	42,5287
548,00	42,5082
548,50	42,5233
549,00	42,5255
549,50	42,5303
550,00	42,5395
550,50	42,5368
551,00	42,5214
551,50	42,4931
552,00	42,5027
552,50	42,4890
553,00	42,4625
553,50	42,4651
554,00	42,4472
554,50	42,4012
555,00	42,3964
555,50	42,3981
556,00	42,3990
556,50	42,3838
557,00	42,3604
557,50	42,3310
558,00	42,3057
558,50	42,2882
559,00	42,3121
559,50	42,3067
560,00	42,2898
560,50	42,2875
561,00	42,2651
561,50	42,2717
562,00	42,2638
562,50	42,2641
563,00	42,2817
563,50	42,2417
564,00	42,2299
564,50	42,2036
565,00	42,2016
565,50	42,2068
566,00	42,1786
566,50	42,2041
567,00	42,1984
567,50	42,1703
568,00	42,1841
568,50	42,1785
569,00	42,2089
569,50	42,2080
570,00	42,1882
570,50	42,2212
571,00	42,1991
571,50	42,2019
572,00	42,2193
572,50	42,2136
573,00	42,2222
573,50	42,2179
574,00	42,2105
574,50	42,2291
575,00	42,2113
575,50	42,2117
576,00	42,2233
576,50	42,2280
577,00	42,2334
577,50	42,2387
578,00	42,2354
578,50	42,2353
579,00	42,2419
579,50	42,2330
580,00	42,2280
580,50	42,2152
581,00	42,2022
581,50	42,2218
582,00	42,2211
582,50	42,2117
583,00	42,2064
583,50	42,2019
584,00	42,2456
584,50	42,2460
585,00	42,2690
585,50	42,2772
586,00	42,2670
586,50	42,2630
587,00	42,2777
587,50	42,3223
588,00	42,3249
588,50	42,3161
589,00	42,3447
589,50	42,3371
590,00	42,3380
590,50	42,3506
591,00	42,3586
591,50	42,3632
592,00	42,3466
592,50	42,3571
593,00	42,3585
593,50	42,3506
594,00	42,3378
594,50	42,3548
595,00	42,3369
595,50	42,3411
596,00	42,3357
596,50	42,3276
597,00	42,3224
597,50	42,3114
598,00	42,2963
598,50	42,2861
599,00	42,2571
599,50	42,2519
600,00	42,2325
